idx,cond,ttype,sstrial,ssd,ssdperc,probe,response,acc,rt,trial
1,uniform,go,0,0,0.0,0,1,1,0.42246,0
1,uniform,go,0,0,0.0,0,1,1,0.58201,1
1,uniform,go,0,0,0.0,0,1,1,0.58189,2
1,uniform,go,0,0,0.0,0,1,1,0.5156,3
1,uniform,go,0,0,0.0,0,1,1,0.61562,4
1,uniform,go,0,0,0.0,0,1,1,0.56558,5
1,uniform,go,0,0,0.0,0,1,1,0.58222,6
1,uniform,go,0,0,0.0,0,1,1,0.53238,7
1,uniform,go,0,0,0.0,0,1,1,0.59893,8
1,uniform,go,0,0,0.0,0,1,1,0.56553,9
1,uniform,stop,1,300,0.6,1,1,0,0.48237,10
1,uniform,go,0,0,0.0,0,1,1,0.54865,11
1,uniform,go,0,0,0.0,0,1,1,0.54901,12
1,uniform,go,0,0,0.0,0,1,1,0.59912,13
1,uniform,go,0,0,0.0,0,1,1,0.58227,14
1,uniform,go,0,0,0.0,0,1,1,0.5321,15
1,uniform,stop,1,400,0.8,1,1,0,0.59872,16
1,uniform,go,0,0,0.0,0,1,1,0.56572,17
1,uniform,stop,1,15,0.031833,0,0,1,0.68222,18
1,uniform,stop,1,222,0.44559,0,0,1,0.68175,19
1,uniform,go,0,0,0.0,0,1,1,0.58226,20
1,uniform,stop,1,219,0.43874,0,0,1,0.68221,21
1,uniform,go,0,0,0.0,0,1,1,0.61569,22
1,uniform,go,0,0,0.0,0,1,1,0.63242,23
1,uniform,go,0,0,0.0,0,1,1,0.44866,24
1,uniform,stop,1,200,0.4,1,0,1,0.68237,25
1,uniform,stop,1,111,0.22381,0,0,1,0.68223,26
1,uniform,stop,1,59,0.119,0,0,1,0.6823,27
1,uniform,stop,1,250,0.5,1,0,1,0.68219,28
1,uniform,go,0,0,0.0,0,1,1,0.5988,29
1,uniform,stop,1,327,0.6551,0,0,1,0.68227,30
1,uniform,go,0,0,0.0,0,1,1,0.54894,31
1,uniform,go,0,0,0.0,0,1,1,0.59865,32
1,uniform,go,0,0,0.0,0,1,1,0.66567,33
1,uniform,stop,1,200,0.4,1,0,1,0.68233,34
1,uniform,go,0,0,0.0,0,1,1,0.64866,35
1,uniform,go,0,0,0.0,0,1,1,0.51563,36
1,uniform,go,0,0,0.0,0,1,1,0.61529,37
1,uniform,go,0,0,0.0,0,1,1,0.56526,38
1,uniform,stop,1,354,0.70936,0,0,1,0.68241,39
1,uniform,stop,1,250,0.5,1,0,1,0.68232,40
1,uniform,stop,1,81,0.16261,0,0,1,0.68215,41
1,uniform,go,0,0,0.0,0,1,1,0.59897,42
1,uniform,go,0,0,0.0,0,1,1,0.58231,43
1,uniform,go,0,0,0.0,0,1,1,0.56559,44
1,uniform,go,0,0,0.0,0,1,1,0.58239,45
1,uniform,go,0,0,0.0,0,1,1,0.46562,46
1,uniform,go,0,0,0.0,0,1,1,0.59863,47
1,uniform,go,0,0,0.0,0,1,1,0.54869,48
1,uniform,go,0,0,0.0,0,1,1,0.54895,49
1,uniform,go,0,0,0.0,0,1,1,0.58245,50
1,uniform,go,0,0,0.0,0,1,1,0.58238,51
1,uniform,stop,1,323,0.64631,0,1,0,0.53202,52
1,uniform,go,0,0,0.0,0,1,1,0.59877,53
1,uniform,go,0,0,0.0,0,1,1,0.66533,54
1,uniform,go,0,0,0.0,0,1,1,0.56547,55
1,uniform,stop,1,138,0.27603,0,0,1,0.68195,56
1,uniform,go,0,0,0.0,0,1,1,0.59913,57
1,uniform,stop,1,17,0.034446,0,0,1,0.6819,58
1,uniform,go,0,0,0.0,0,1,1,0.46563,59
1,uniform,stop,1,353,0.70605,0,1,0,0.46536,60
1,uniform,go,0,0,0.0,0,1,1,0.64897,61
1,uniform,go,0,0,0.0,0,1,1,0.61576,62
1,uniform,go,0,0,0.0,0,1,1,0.58228,63
1,uniform,go,0,0,0.0,0,1,1,0.63235,64
1,uniform,go,0,0,0.0,0,1,1,0.54867,65
1,uniform,go,0,0,0.0,0,1,1,0.56558,66
1,uniform,go,0,0,0.0,0,1,1,0.54903,67
1,uniform,go,0,0,0.0,0,1,1,0.56577,68
1,uniform,stop,1,350,0.7,1,1,0,0.46531,69
1,uniform,go,0,0,0.0,0,1,1,0.68198,70
1,uniform,stop,1,292,0.58527,0,1,0,0.49883,71
1,uniform,go,0,0,0.0,0,1,1,0.58236,72
1,uniform,stop,1,170,0.34039,0,0,1,0.68177,73
1,uniform,stop,1,378,0.75774,0,1,0,0.59889,74
1,uniform,go,0,0,0.0,0,1,1,0.61539,75
1,uniform,go,0,0,0.0,0,1,1,0.59881,76
1,uniform,go,0,0,0.0,0,1,1,0.59889,77
1,uniform,go,0,0,0.0,0,1,1,0.61563,78
1,uniform,go,0,0,0.0,0,1,1,0.61579,79
1,uniform,stop,1,196,0.39223,0,0,1,0.6819,80
1,uniform,go,0,0,0.0,0,1,1,0.58188,81
1,uniform,stop,1,327,0.65548,0,0,1,0.6819,82
1,uniform,go,0,0,0.0,0,1,1,0.61558,83
1,uniform,go,0,0,0.0,0,1,1,0.64896,84
1,uniform,stop,1,85,0.17119,0,0,1,0.68221,85
1,uniform,stop,1,397,0.7952,0,1,0,0.58204,86
1,uniform,go,0,0,0.0,0,1,1,0.63229,87
1,uniform,go,0,0,0.0,0,1,1,0.59909,88
1,uniform,go,0,0,0.0,0,1,1,0.54921,89
1,uniform,go,0,0,0.0,0,1,1,0.61518,90
1,uniform,stop,1,377,0.75469,0,1,0,0.59861,91
1,uniform,go,0,0,0.0,0,1,1,0.63233,92
1,uniform,stop,1,93,0.18687,0,0,1,0.66587,93
1,uniform,go,0,0,0.0,0,1,1,0.61556,94
1,uniform,go,0,0,0.0,0,1,1,0.63213,95
1,uniform,stop,1,411,0.82346,0,1,0,0.61522,96
1,uniform,go,0,0,0.0,0,1,1,0.61569,97
1,uniform,stop,1,244,0.48976,0,0,1,0.68251,98
1,uniform,stop,1,350,0.7,1,0,1,0.68203,99
1,uniform,go,0,0,0.0,0,1,1,0.68202,100
1,uniform,go,0,0,0.0,0,1,1,0.66569,101
1,uniform,stop,1,339,0.6797,0,0,1,0.682,102
1,uniform,stop,1,400,0.8,1,1,0,0.63194,103
1,uniform,go,0,0,0.0,0,1,1,0.66543,104
1,uniform,go,0,0,0.0,0,1,1,0.64911,105
1,uniform,go,0,0,0.0,0,1,1,0.63255,106
1,uniform,go,0,0,0.0,0,1,1,0.63191,107
1,uniform,stop,1,300,0.6,1,1,0,0.48191,108
1,uniform,stop,1,158,0.3171,0,0,1,0.68195,109
1,uniform,go,0,0,0.0,0,1,1,0.61554,110
1,uniform,go,0,0,0.0,0,1,1,0.64907,111
1,uniform,go,0,0,0.0,0,1,1,0.63214,112
1,uniform,go,0,0,0.0,0,1,1,0.48227,113
1,uniform,go,0,0,0.0,0,1,1,0.59911,114
1,uniform,go,0,0,0.0,0,1,1,0.46521,115
1,uniform,go,0,0,0.0,0,1,1,0.63231,116
1,uniform,go,0,0,0.0,0,1,1,0.44864,117
1,uniform,go,0,0,0.0,0,1,1,0.61569,118
1,uniform,go,0,0,0.0,0,1,1,0.44895,119
1,uniform,go,0,0,0.0,0,1,1,0.48226,120
1,uniform,stop,1,250,0.5,1,0,1,0.68203,121
1,uniform,go,0,0,0.0,0,1,1,0.49896,122
1,uniform,stop,1,215,0.43021,0,0,1,0.68188,123
1,uniform,go,0,0,0.0,0,1,1,0.59889,124
1,uniform,stop,1,155,0.3111,0,0,1,0.68184,125
1,uniform,go,0,0,0.0,0,1,1,0.48227,126
1,uniform,stop,1,92,0.18482,0,0,1,0.68246,127
1,uniform,stop,1,212,0.42417,0,0,1,0.68194,128
1,uniform,stop,1,400,0.8,1,1,0,0.54859,129
1,uniform,go,0,0,0.0,0,1,1,0.61526,130
1,uniform,go,0,0,0.0,0,1,1,0.58198,131
1,uniform,go,0,0,0.0,0,1,1,0.48175,132
1,uniform,stop,1,253,0.50786,0,0,1,0.68189,133
1,uniform,stop,1,350,0.7,1,1,0,0.58206,134
1,uniform,go,0,0,0.0,0,1,1,0.64897,135
1,uniform,go,0,0,0.0,0,1,1,0.56564,136
1,uniform,stop,1,97,0.19476,0,0,1,0.68202,137
1,uniform,go,0,0,0.0,0,1,1,0.56533,138
1,uniform,go,0,0,0.0,0,1,1,0.49854,139
1,uniform,go,0,0,0.0,0,1,1,0.49862,140
1,uniform,stop,1,103,0.20774,0,0,1,0.68222,141
1,uniform,go,0,0,0.0,0,1,1,0.61538,142
1,uniform,go,0,0,0.0,0,1,1,0.48192,143
1,uniform,go,0,0,0.0,0,1,1,0.49904,144
1,uniform,go,0,0,0.0,0,1,1,0.58192,145
1,uniform,stop,1,150,0.30125,0,0,1,0.68195,146
1,uniform,go,0,0,0.0,0,1,1,0.4992,147
1,uniform,go,0,0,0.0,0,1,1,0.58193,148
1,uniform,go,0,0,0.0,0,1,1,0.51524,149
1,uniform,go,0,0,0.0,0,1,1,0.59871,150
1,uniform,go,0,0,0.0,0,1,1,0.46567,151
1,uniform,go,0,0,0.0,0,1,1,0.48193,152
1,uniform,go,0,0,0.0,0,1,1,0.54861,153
1,uniform,go,0,0,0.0,0,1,1,0.48242,154
1,uniform,go,0,0,0.0,0,1,1,0.43232,155
1,uniform,go,0,0,0.0,0,1,1,0.63203,156
1,uniform,go,0,0,0.0,0,1,1,0.51546,157
1,uniform,go,0,0,0.0,0,1,1,0.48193,158
1,uniform,go,0,0,0.0,0,1,1,0.48207,159
1,uniform,go,0,0,0.0,0,1,1,0.49872,160
1,uniform,go,0,0,0.0,0,1,1,0.56549,161
1,uniform,go,0,0,0.0,0,1,1,0.51524,162
1,uniform,go,0,0,0.0,0,1,1,0.46594,163
1,uniform,go,0,0,0.0,0,1,1,0.54856,164
1,uniform,stop,1,148,0.29668,0,0,1,0.6821,165
1,uniform,stop,1,300,0.6,1,0,1,0.68222,166
1,uniform,go,0,0,0.0,0,1,1,0.56526,167
1,uniform,stop,1,217,0.4357,0,0,1,0.68198,168
1,uniform,go,0,0,0.0,0,1,1,0.48228,169
1,uniform,go,0,0,0.0,0,1,1,0.48182,170
1,uniform,stop,1,422,0.84431,0,1,0,0.54872,171
1,uniform,stop,1,250,0.5,1,0,1,0.68187,172
1,uniform,stop,1,131,0.26221,0,0,1,0.68194,173
1,uniform,stop,1,450,0.9,0,1,0,0.63194,174
1,uniform,go,0,0,0.0,0,1,1,0.5987,175
1,uniform,go,0,0,0.0,0,1,1,0.46519,176
1,uniform,go,0,0,0.0,0,1,1,0.58182,177
1,uniform,go,0,0,0.0,0,1,1,0.51545,178
1,uniform,stop,1,293,0.58704,0,1,0,0.51531,179
1,uniform,go,0,0,0.0,0,1,1,0.63214,180
1,uniform,go,0,0,0.0,0,1,1,0.51542,181
1,uniform,stop,1,300,0.6,1,0,1,0.68203,182
1,uniform,go,0,0,0.0,0,1,1,0.56572,183
1,uniform,stop,1,400,0.8,1,1,0,0.46534,184
1,uniform,go,0,0,0.0,0,1,1,0.61523,185
1,uniform,go,0,0,0.0,0,1,1,0.48193,186
1,uniform,stop,1,350,0.7,1,0,1,0.66586,187
1,uniform,go,0,0,0.0,0,1,1,0.61576,188
1,uniform,stop,1,200,0.4,1,0,1,0.67413,189
1,uniform,go,0,0,0.0,0,1,1,0.56569,190
1,uniform,go,0,0,0.0,0,1,1,0.61533,191
1,uniform,go,0,0,0.0,0,1,1,0.49915,192
1,uniform,stop,1,450,0.9,0,1,0,0.63205,193
1,uniform,go,0,0,0.0,0,1,1,0.59866,194
1,uniform,go,0,0,0.0,0,1,1,0.56528,195
1,uniform,stop,1,85,0.17071,0,0,1,0.68179,196
1,uniform,stop,1,129,0.25806,0,0,1,0.6824,197
1,uniform,go,0,0,0.0,0,1,1,0.48247,198
1,uniform,stop,1,110,0.22175,0,0,1,0.68194,199
1,uniform,go,0,0,0.0,0,1,1,0.54864,200
1,uniform,stop,1,200,0.4,1,0,1,0.68197,201
1,uniform,stop,1,55,0.11112,0,0,1,0.68225,202
1,uniform,stop,1,219,0.43887,0,0,1,0.68204,203
1,uniform,go,0,0,0.0,0,1,1,0.58195,204
1,uniform,stop,1,159,0.31878,0,0,1,0.68198,205
1,uniform,go,0,0,0.0,0,1,1,0.51529,206
1,uniform,go,0,0,0.0,0,1,1,0.53196,207
1,uniform,stop,1,275,0.55016,0,1,0,0.4819,208
1,uniform,go,0,0,0.0,0,1,1,0.53195,209
1,uniform,stop,1,235,0.47092,0,0,1,0.68189,210
1,uniform,go,0,0,0.0,0,1,1,0.58191,211
1,uniform,go,0,0,0.0,0,1,1,0.51524,212
1,uniform,go,0,0,0.0,0,1,1,0.49878,213
1,uniform,stop,1,301,0.60284,0,0,1,0.68193,214
1,uniform,stop,1,112,0.22592,0,0,1,0.68197,215
1,uniform,go,0,0,0.0,0,1,1,0.53196,216
1,uniform,go,0,0,0.0,0,1,1,0.61533,217
1,uniform,go,0,0,0.0,0,1,1,0.48271,218
1,uniform,go,0,0,0.0,0,1,1,0.4653,219
1,uniform,go,0,0,0.0,0,1,1,0.65548,220
1,uniform,go,0,0,0.0,0,1,1,0.39868,221
1,uniform,go,0,0,0.0,0,1,1,0.53198,222
1,uniform,go,0,0,0.0,0,1,1,0.53204,223
1,uniform,go,0,0,0.0,0,1,1,0.46587,224
1,uniform,go,0,0,0.0,0,1,1,0.48205,225
1,uniform,go,0,0,0.0,0,1,1,0.51588,226
1,uniform,go,0,0,0.0,0,1,1,0.51535,227
1,uniform,go,0,0,0.0,0,1,1,0.5152,228
1,uniform,go,0,0,0.0,0,1,1,0.54863,229
1,uniform,go,0,0,0.0,0,1,1,0.44884,230
1,uniform,go,0,0,0.0,0,1,1,0.51526,231
1,uniform,go,0,0,0.0,0,1,1,0.53197,232
1,uniform,stop,1,297,0.59436,0,1,0,0.51526,233
1,uniform,go,0,0,0.0,0,1,1,0.58235,234
1,uniform,go,0,0,0.0,0,1,1,0.5319,235
1,uniform,go,0,0,0.0,0,1,1,0.49904,236
1,uniform,go,0,0,0.0,0,1,1,0.59904,237
1,uniform,stop,1,16,0.033604,0,0,1,0.68232,238
1,uniform,go,0,0,0.0,0,1,1,0.59899,239
1,uniform,go,0,0,0.0,0,1,1,0.4654,240
1,uniform,stop,1,408,0.81776,0,1,0,0.51565,241
1,uniform,stop,1,365,0.73025,0,1,0,0.53228,242
1,uniform,go,0,0,0.0,0,1,1,0.56578,243
1,uniform,go,0,0,0.0,0,1,1,0.61588,244
1,uniform,stop,1,200,0.4,1,0,1,0.68244,245
1,uniform,go,0,0,0.0,0,1,1,0.51562,246
1,uniform,stop,1,350,0.7,1,1,0,0.48232,247
1,uniform,go,0,0,0.0,0,1,1,0.59888,248
1,uniform,stop,1,200,0.4,1,0,1,0.68232,249
1,uniform,stop,1,52,0.10563,0,0,1,0.66597,250
1,uniform,go,0,0,0.0,0,1,1,0.51567,251
1,uniform,go,0,0,0.0,0,1,1,0.54892,252
1,uniform,stop,1,300,0.6,1,1,0,0.53232,253
1,uniform,go,0,0,0.0,0,1,1,0.4826,254
1,uniform,stop,1,130,0.26073,0,0,1,0.68242,255
1,uniform,go,0,0,0.0,0,1,1,0.51553,256
1,uniform,go,0,0,0.0,0,1,1,0.58248,257
1,uniform,go,0,0,0.0,0,1,1,0.51572,258
1,uniform,stop,1,409,0.81998,0,1,0,0.59896,259
1,uniform,go,0,0,0.0,0,1,1,0.63236,260
1,uniform,go,0,0,0.0,0,1,1,0.54892,261
1,uniform,go,0,0,0.0,0,1,1,0.54923,262
1,uniform,go,0,0,0.0,0,1,1,0.5157,263
1,uniform,go,0,0,0.0,0,1,1,0.53228,264
1,uniform,go,0,0,0.0,0,1,1,0.6156,265
1,uniform,stop,1,450,0.9,0,1,0,0.51576,266
1,uniform,go,0,0,0.0,0,1,1,0.63226,267
1,uniform,stop,1,80,0.16148,0,0,1,0.68221,268
1,uniform,go,0,0,0.0,0,1,1,0.4657,269
1,uniform,go,0,0,0.0,0,1,1,0.49909,270
1,uniform,go,0,0,0.0,0,1,1,0.49916,271
1,uniform,go,0,0,0.0,0,1,1,0.56582,272
1,uniform,stop,1,159,0.3196,0,0,1,0.68222,273
1,uniform,stop,1,265,0.53086,0,0,1,0.68236,274
1,uniform,go,0,0,0.0,0,1,1,0.59915,275
1,uniform,go,0,0,0.0,0,1,1,0.41573,276
1,uniform,go,0,0,0.0,0,1,1,0.56567,277
1,uniform,go,0,0,0.0,0,1,1,0.48238,278
1,uniform,go,0,0,0.0,0,1,1,0.56568,279
1,uniform,go,0,0,0.0,0,1,1,0.53238,280
1,uniform,go,0,0,0.0,0,1,1,0.51559,281
1,uniform,go,0,0,0.0,0,1,1,0.48242,282
1,uniform,go,0,0,0.0,0,1,1,0.53249,283
1,uniform,stop,1,156,0.31272,0,0,1,0.68231,284
1,uniform,stop,1,11,0.022513,0,0,1,0.6823,285
1,uniform,go,0,0,0.0,0,1,1,0.46573,286
1,uniform,go,0,0,0.0,0,1,1,0.49895,287
1,uniform,stop,1,34,0.068806,0,0,1,0.68228,288
1,uniform,stop,1,450,0.9,0,1,0,0.53222,289
1,uniform,stop,1,305,0.61096,0,0,1,0.68245,290
1,uniform,go,0,0,0.0,0,1,1,0.49912,291
1,uniform,stop,1,299,0.59852,0,0,1,0.68238,292
1,uniform,go,0,0,0.0,0,1,1,0.64887,293
1,uniform,stop,1,300,0.6,1,1,0,0.5322,294
1,uniform,go,0,0,0.0,0,1,1,0.59892,295
1,uniform,go,0,0,0.0,0,1,1,0.5823,296
1,uniform,stop,1,211,0.42289,0,0,1,0.68245,297
1,uniform,stop,1,327,0.65445,0,1,0,0.4824,298
1,uniform,stop,1,359,0.71836,0,0,1,0.66604,299
1,uniform,go,0,0,0.0,0,1,1,0.59921,300
1,uniform,stop,1,47,0.094229,0,0,1,0.68221,301
1,uniform,stop,1,212,0.42526,0,0,1,0.68221,302
1,uniform,go,0,0,0.0,0,1,1,0.58246,303
1,uniform,go,0,0,0.0,0,1,1,0.599,304
1,uniform,go,0,0,0.0,0,1,1,0.5153,305
1,uniform,go,0,0,0.0,0,1,1,0.6155,306
1,uniform,stop,1,250,0.5,1,1,0,0.46564,307
1,uniform,go,0,0,0.0,0,1,1,0.49932,308
1,uniform,go,0,0,0.0,0,1,1,0.51555,309
1,uniform,stop,1,250,0.5,1,0,1,0.68221,310
1,uniform,go,0,0,0.0,0,1,1,0.56516,311
1,uniform,go,0,0,0.0,0,1,1,0.4991,312
1,uniform,go,0,0,0.0,0,1,1,0.46539,313
1,uniform,stop,1,439,0.87965,0,1,0,0.51564,314
1,uniform,go,0,0,0.0,0,1,1,0.59875,315
1,uniform,stop,1,350,0.7,1,1,0,0.54891,316
1,uniform,go,0,0,0.0,0,1,1,0.59895,317
1,uniform,go,0,0,0.0,0,1,1,0.5823,318
1,uniform,stop,1,162,0.32515,0,0,1,0.68224,319
1,uniform,stop,1,400,0.8,1,1,0,0.63261,320
1,uniform,go,0,0,0.0,0,1,1,0.54907,321
1,uniform,go,0,0,0.0,0,1,1,0.5658,322
1,uniform,go,0,0,0.0,0,1,1,0.63235,323
1,uniform,stop,1,400,0.8,1,1,0,0.54927,324
1,uniform,go,0,0,0.0,0,1,1,0.53243,325
1,uniform,go,0,0,0.0,0,1,1,0.56595,326
1,uniform,stop,1,235,0.47092,0,0,1,0.66595,327
1,uniform,go,0,0,0.0,0,1,1,0.54938,328
1,uniform,go,0,0,0.0,0,1,1,0.61574,329
1,uniform,go,0,0,0.0,0,1,1,0.6655,330
1,uniform,go,0,0,0.0,0,1,1,0.49867,331
1,uniform,go,0,0,0.0,0,1,1,0.49897,332
1,uniform,go,0,0,0.0,0,1,1,0.51573,333
1,uniform,go,0,0,0.0,0,1,1,0.56526,334
1,uniform,go,0,0,0.0,0,1,1,0.49903,335
1,uniform,go,0,0,0.0,0,1,1,0.51588,336
1,uniform,go,0,0,0.0,0,1,1,0.53203,337
1,uniform,go,0,0,0.0,0,1,1,0.56564,338
1,uniform,go,0,0,0.0,0,1,1,0.49921,339
1,uniform,go,0,0,0.0,0,1,1,0.54892,340
1,uniform,go,0,0,0.0,0,1,1,0.59859,341
1,uniform,stop,1,163,0.32757,0,0,1,0.682,342
1,uniform,stop,1,198,0.39679,0,0,1,0.68186,343
1,uniform,stop,1,247,0.49501,0,0,1,0.68251,344
1,uniform,go,0,0,0.0,0,1,1,0.54893,345
1,uniform,go,0,0,0.0,0,1,1,0.51533,346
1,uniform,go,0,0,0.0,0,1,1,0.58224,347
1,uniform,go,0,0,0.0,0,1,1,0.49905,348
1,uniform,go,0,0,0.0,0,1,1,0.4492,349
1,uniform,stop,1,44,0.089951,0,0,1,0.68218,350
1,uniform,go,0,0,0.0,0,1,1,0.51576,351
1,uniform,go,0,0,0.0,0,1,1,0.53227,352
1,uniform,stop,1,55,0.11171,0,0,1,0.68193,353
1,uniform,go,0,0,0.0,0,1,1,0.39892,354
1,uniform,stop,1,188,0.3774,0,0,1,0.68223,355
1,uniform,stop,1,400,0.8,1,1,0,0.51542,356
1,uniform,go,0,0,0.0,0,1,1,0.64864,357
1,uniform,go,0,0,0.0,0,1,1,0.48206,358
1,uniform,stop,1,68,0.13629,0,0,1,0.68198,359
1,uniform,stop,1,395,0.79041,0,1,0,0.53226,360
1,uniform,stop,1,339,0.67865,0,1,0,0.5492,361
1,uniform,go,0,0,0.0,0,1,1,0.59894,362
1,uniform,go,0,0,0.0,0,1,1,0.59892,363
1,uniform,go,0,0,0.0,0,1,1,0.53268,364
1,uniform,go,0,0,0.0,0,1,1,0.51558,365
1,uniform,go,0,0,0.0,0,1,1,0.61556,366
1,uniform,stop,1,450,0.9,0,1,0,0.4152,367
1,uniform,stop,1,377,0.75508,0,1,0,0.63237,368
1,uniform,stop,1,108,0.21602,0,0,1,0.68236,369
1,uniform,stop,1,400,0.8,1,1,0,0.61593,370
1,uniform,stop,1,203,0.40695,0,0,1,0.68242,371
1,uniform,go,0,0,0.0,0,1,1,0.66542,372
1,uniform,go,0,0,0.0,0,1,1,0.54906,373
1,uniform,go,0,0,0.0,0,1,1,0.3819,374
1,uniform,stop,1,99,0.19986,0,0,1,0.68187,375
1,uniform,stop,1,219,0.43864,0,0,1,0.6825,376
1,uniform,go,0,0,0.0,0,1,1,0.58188,377
1,uniform,go,0,0,0.0,0,1,1,0.54916,378
1,uniform,go,0,0,0.0,0,1,1,0.48217,379
1,uniform,go,0,0,0.0,0,1,1,0.56571,380
1,uniform,go,0,0,0.0,0,1,1,0.53247,381
1,uniform,go,0,0,0.0,0,1,1,0.51528,382
1,uniform,go,0,0,0.0,0,1,1,0.51523,383
1,uniform,go,0,0,0.0,0,1,1,0.5493,384
1,uniform,go,0,0,0.0,0,1,1,0.51527,385
1,uniform,go,0,0,0.0,0,1,1,0.51539,386
1,uniform,go,0,0,0.0,0,1,1,0.51524,387
1,uniform,stop,1,394,0.78996,0,1,0,0.56541,388
1,uniform,go,0,0,0.0,0,1,1,0.6157,389
1,uniform,stop,1,450,0.9,0,1,0,0.49922,390
1,uniform,go,0,0,0.0,0,1,1,0.51562,391
1,uniform,go,0,0,0.0,0,1,1,0.58235,392
1,uniform,go,0,0,0.0,0,1,1,0.56522,393
1,uniform,go,0,0,0.0,0,1,1,0.43256,394
1,uniform,stop,1,350,0.7,1,1,0,0.56572,395
1,uniform,stop,1,350,0.7,1,0,1,0.68222,396
1,uniform,stop,1,250,0.5,1,0,1,0.68238,397
1,uniform,go,0,0,0.0,0,1,1,0.58177,398
1,uniform,go,0,0,0.0,0,1,1,0.5321,399
1,uniform,stop,1,200,0.4,1,0,1,0.68256,400
1,uniform,stop,1,416,0.8335,0,1,0,0.56557,401
1,uniform,go,0,0,0.0,0,1,1,0.68201,402
1,uniform,go,0,0,0.0,0,1,1,0.49921,403
1,uniform,go,0,0,0.0,0,1,1,0.56524,404
1,uniform,stop,1,374,0.74871,0,1,0,0.48194,405
1,uniform,stop,1,94,0.18971,0,0,1,0.68188,406
1,uniform,go,0,0,0.0,0,1,1,0.4985,407
1,uniform,stop,1,247,0.49518,0,0,1,0.68228,408
1,uniform,stop,1,300,0.6,1,0,1,0.68227,409
1,uniform,stop,1,300,0.6,1,0,1,0.68232,410
1,uniform,go,0,0,0.0,0,1,1,0.56563,411
1,uniform,go,0,0,0.0,0,1,1,0.58223,412
1,uniform,go,0,0,0.0,0,1,1,0.5988,413
1,uniform,stop,1,384,0.76885,0,1,0,0.5486,414
1,uniform,go,0,0,0.0,0,1,1,0.61532,415
1,uniform,stop,1,200,0.4,1,0,1,0.68221,416
1,uniform,go,0,0,0.0,0,1,1,0.54885,417
1,uniform,go,0,0,0.0,0,1,1,0.53216,418
1,uniform,go,0,0,0.0,0,1,1,0.51595,419
1,uniform,go,0,0,0.0,0,1,1,0.51554,420
1,uniform,go,0,0,0.0,0,1,1,0.54874,421
1,uniform,go,0,0,0.0,0,1,1,0.5489,422
1,uniform,go,0,0,0.0,0,1,1,0.51588,423
1,uniform,stop,1,294,0.58803,0,0,1,0.6823,424
1,uniform,go,0,0,0.0,0,1,1,0.56584,425
1,uniform,go,0,0,0.0,0,1,1,0.48228,426
1,uniform,go,0,0,0.0,0,1,1,0.5487,427
1,uniform,stop,1,250,0.5,1,0,1,0.6825,428
1,uniform,go,0,0,0.0,0,1,1,0.51565,429
1,uniform,go,0,0,0.0,0,1,1,0.56581,430
1,uniform,go,0,0,0.0,0,1,1,0.54875,431
1,uniform,go,0,0,0.0,0,1,1,0.44902,432
1,uniform,stop,1,73,0.14761,0,0,1,0.68237,433
1,uniform,go,0,0,0.0,0,1,1,0.51526,434
1,uniform,go,0,0,0.0,0,1,1,0.56556,435
1,uniform,stop,1,267,0.53406,0,1,0,0.41558,436
1,uniform,go,0,0,0.0,0,1,1,0.53231,437
1,uniform,go,0,0,0.0,0,1,1,0.48252,438
1,uniform,go,0,0,0.0,0,1,1,0.56539,439
1,uniform,go,0,0,0.0,0,1,1,0.61565,440
1,uniform,go,0,0,0.0,0,1,1,0.44904,441
1,uniform,go,0,0,0.0,0,1,1,0.56524,442
1,uniform,go,0,0,0.0,0,1,1,0.46537,443
1,uniform,go,0,0,0.0,0,1,1,0.48181,444
1,uniform,go,0,0,0.0,0,1,1,0.49894,445
1,uniform,go,0,0,0.0,0,1,1,0.46531,446
1,uniform,go,0,0,0.0,0,1,1,0.49891,447
1,uniform,go,0,0,0.0,0,1,1,0.56563,448
1,uniform,go,0,0,0.0,0,1,1,0.5158,449
1,uniform,go,0,0,0.0,0,1,1,0.49916,450
1,uniform,stop,1,143,0.28798,0,0,1,0.68199,451
1,uniform,go,0,0,0.0,0,1,1,0.46531,452
1,uniform,go,0,0,0.0,0,1,1,0.51591,453
1,uniform,go,0,0,0.0,0,1,1,0.48201,454
1,uniform,stop,1,23,0.046351,0,0,1,0.68224,455
1,uniform,go,0,0,0.0,0,1,1,0.49883,456
1,uniform,go,0,0,0.0,0,1,1,0.46539,457
1,uniform,stop,1,250,0.5,1,0,1,0.68193,458
1,uniform,stop,1,380,0.76143,0,1,0,0.63182,459
1,uniform,go,0,0,0.0,0,1,1,0.68201,460
1,uniform,stop,1,373,0.74631,0,1,0,0.63183,461
1,uniform,stop,1,200,0.4,1,0,1,0.68203,462
1,uniform,go,0,0,0.0,0,1,1,0.68197,463
1,uniform,go,0,0,0.0,0,1,1,0.51566,464
1,uniform,go,0,0,0.0,0,1,1,0.51567,465
1,uniform,go,0,0,0.0,0,1,1,0.53184,466
1,uniform,go,0,0,0.0,0,1,1,0.53201,467
1,uniform,stop,1,50,0.10167,0,0,1,0.66589,468
1,uniform,go,0,0,0.0,0,1,1,0.51525,469
1,uniform,go,0,0,0.0,0,1,1,0.49855,470
1,uniform,go,0,0,0.0,0,1,1,0.56584,471
1,uniform,go,0,0,0.0,0,1,1,0.54854,472
1,uniform,go,0,0,0.0,0,1,1,0.49862,473
1,uniform,go,0,0,0.0,0,1,1,0.48234,474
1,uniform,stop,1,24,0.048447,0,0,1,0.68184,475
1,uniform,go,0,0,0.0,0,1,1,0.51523,476
1,uniform,stop,1,6,0.013283,0,0,1,0.68196,477
1,uniform,go,0,0,0.0,0,1,1,0.51534,478
1,uniform,go,0,0,0.0,0,1,1,0.48196,479
1,uniform,stop,1,350,0.7,1,1,0,0.49894,480
1,uniform,stop,1,31,0.062045,0,0,1,0.68191,481
1,uniform,go,0,0,0.0,0,1,1,0.51532,482
1,uniform,go,0,0,0.0,0,1,1,0.46536,483
1,uniform,stop,1,333,0.66792,0,0,1,0.68196,484
1,uniform,stop,1,390,0.78138,0,1,0,0.56587,485
1,uniform,stop,1,250,0.5,1,0,1,0.68231,486
1,uniform,stop,1,350,0.7,1,0,1,0.68202,487
1,uniform,go,0,0,0.0,0,1,1,0.66563,488
1,uniform,go,0,0,0.0,0,1,1,0.51528,489
1,uniform,go,0,0,0.0,0,1,1,0.51556,490
1,uniform,go,0,0,0.0,0,1,1,0.44898,491
1,uniform,go,0,0,0.0,0,1,1,0.53246,492
1,uniform,go,0,0,0.0,0,1,1,0.51526,493
1,uniform,go,0,0,0.0,0,1,1,0.5155,494
1,uniform,go,0,0,0.0,0,1,1,0.53228,495
1,uniform,go,0,0,0.0,0,1,1,0.54858,496
1,uniform,stop,1,448,0.89719,0,1,0,0.51535,497
1,uniform,stop,1,353,0.70725,0,1,0,0.49874,498
1,uniform,go,0,0,0.0,0,1,1,0.51563,499
1,uniform,go,0,0,0.0,0,1,1,0.53213,500
1,uniform,go,0,0,0.0,0,1,1,0.56566,501
1,uniform,stop,1,252,0.50543,0,1,0,0.49869,502
1,uniform,go,0,0,0.0,0,1,1,0.68197,503
1,uniform,go,0,0,0.0,0,1,1,0.3821,504
1,uniform,go,0,0,0.0,0,1,1,0.49874,505
1,uniform,stop,1,266,0.53377,0,0,1,0.6825,506
1,uniform,stop,1,300,0.6,1,1,0,0.49851,507
1,uniform,go,0,0,0.0,0,1,1,0.53195,508
1,uniform,go,0,0,0.0,0,1,1,0.53232,509
1,uniform,stop,1,228,0.45606,0,0,1,0.68207,510
1,uniform,stop,1,263,0.5261,0,0,1,0.68197,511
1,uniform,go,0,0,0.0,0,1,1,0.58209,512
1,uniform,stop,1,149,0.29824,0,0,1,0.68235,513
1,uniform,go,0,0,0.0,0,1,1,0.53225,514
1,uniform,stop,1,98,0.19666,0,0,1,0.68197,515
1,uniform,go,0,0,0.0,0,1,1,0.53251,516
1,uniform,go,0,0,0.0,0,1,1,0.56554,517
1,uniform,go,0,0,0.0,0,1,1,0.51579,518
1,uniform,stop,1,388,0.77724,0,1,0,0.53225,519
1,uniform,go,0,0,0.0,0,1,1,0.66569,520
1,uniform,go,0,0,0.0,0,1,1,0.63203,521
1,uniform,go,0,0,0.0,0,1,1,0.51572,522
1,uniform,go,0,0,0.0,0,1,1,0.56541,523
1,uniform,stop,1,153,0.30737,0,0,1,0.68204,524
1,uniform,stop,1,400,0.8,1,1,0,0.51528,525
1,uniform,go,0,0,0.0,0,1,1,0.59882,526
1,uniform,go,0,0,0.0,0,1,1,0.51562,527
1,uniform,go,0,0,0.0,0,1,1,0.58259,528
1,uniform,go,0,0,0.0,0,1,1,0.53245,529
1,uniform,stop,1,400,0.8,1,1,0,0.53247,530
1,uniform,go,0,0,0.0,0,1,1,0.56541,531
1,uniform,go,0,0,0.0,0,1,1,0.46521,532
1,uniform,go,0,0,0.0,0,1,1,0.58203,533
1,uniform,go,0,0,0.0,0,1,1,0.56544,534
1,uniform,stop,1,412,0.82581,0,1,0,0.53251,535
1,uniform,go,0,0,0.0,0,1,1,0.58189,536
1,uniform,stop,1,200,0.4,1,0,1,0.68201,537
1,uniform,go,0,0,0.0,0,1,1,0.61571,538
1,uniform,stop,1,450,0.9,0,1,0,0.61539,539
1,uniform,stop,1,300,0.6,1,1,0,0.51526,540
1,uniform,stop,1,301,0.60347,0,0,1,0.68191,541
1,uniform,go,0,0,0.0,0,1,1,0.64855,542
1,uniform,go,0,0,0.0,0,1,1,0.582,543
1,uniform,go,0,0,0.0,0,1,1,0.59912,544
1,uniform,go,0,0,0.0,0,1,1,0.5653,545
1,uniform,stop,1,5,0.010337,0,0,1,0.68227,546
1,uniform,stop,1,450,0.9,0,1,0,0.56564,547
1,uniform,go,0,0,0.0,0,1,1,0.61539,548
1,uniform,go,0,0,0.0,0,1,1,0.58201,549
1,uniform,go,0,0,0.0,0,1,1,0.59912,550
1,uniform,go,0,0,0.0,0,1,1,0.54905,551
1,uniform,go,0,0,0.0,0,1,1,0.51536,552
1,uniform,go,0,0,0.0,0,1,1,0.51539,553
1,uniform,go,0,0,0.0,0,1,1,0.58195,554
1,uniform,go,0,0,0.0,0,1,1,0.58252,555
1,uniform,go,0,0,0.0,0,1,1,0.48198,556
1,uniform,go,0,0,0.0,0,1,1,0.53183,557
1,uniform,go,0,0,0.0,0,1,1,0.56533,558
1,uniform,go,0,0,0.0,0,1,1,0.43188,559
1,uniform,go,0,0,0.0,0,1,1,0.54898,560
1,uniform,go,0,0,0.0,0,1,1,0.49904,561
1,uniform,stop,1,332,0.66599,0,1,0,0.56531,562
1,uniform,stop,1,212,0.42433,0,0,1,0.68237,563
1,uniform,go,0,0,0.0,0,1,1,0.58233,564
1,uniform,go,0,0,0.0,0,1,1,0.54941,565
1,uniform,stop,1,231,0.46326,0,0,1,0.68187,566
1,uniform,go,0,0,0.0,0,1,1,0.51517,567
1,uniform,go,0,0,0.0,0,1,1,0.5488,568
1,uniform,go,0,0,0.0,0,1,1,0.53186,569
1,uniform,stop,1,371,0.74369,0,1,0,0.61571,570
1,uniform,go,0,0,0.0,0,1,1,0.59911,571
1,uniform,go,0,0,0.0,0,1,1,0.54897,572
1,uniform,go,0,0,0.0,0,1,1,0.51557,573
1,uniform,stop,1,250,0.5,1,1,0,0.46569,574
1,uniform,stop,1,450,0.9,0,1,0,0.64892,575
1,uniform,stop,1,400,0.8,1,1,0,0.58239,576
1,uniform,go,0,0,0.0,0,1,1,0.59917,577
1,uniform,stop,1,62,0.12487,0,0,1,0.68226,578
1,uniform,go,0,0,0.0,0,1,1,0.49914,579
1,uniform,go,0,0,0.0,0,1,1,0.63241,580
1,uniform,stop,1,379,0.75933,0,1,0,0.5491,581
1,uniform,go,0,0,0.0,0,1,1,0.56517,582
1,uniform,go,0,0,0.0,0,1,1,0.6157,583
1,uniform,go,0,0,0.0,0,1,1,0.59889,584
1,uniform,stop,1,120,0.24048,0,0,1,0.66597,585
1,uniform,go,0,0,0.0,0,1,1,0.53236,586
1,uniform,go,0,0,0.0,0,1,1,0.61557,587
1,uniform,go,0,0,0.0,0,1,1,0.56565,588
1,uniform,go,0,0,0.0,0,1,1,0.54892,589
1,uniform,go,0,0,0.0,0,1,1,0.58238,590
1,uniform,stop,1,350,0.7,1,1,0,0.54938,591
1,uniform,go,0,0,0.0,0,1,1,0.61525,592
1,uniform,go,0,0,0.0,0,1,1,0.56569,593
1,uniform,stop,1,145,0.29019,0,0,1,0.68234,594
1,uniform,stop,1,370,0.74065,0,1,0,0.54906,595
1,uniform,stop,1,450,0.9,0,1,0,0.6157,596
1,uniform,stop,1,87,0.17501,0,0,1,0.68227,597
1,uniform,stop,1,279,0.55832,0,0,1,0.68214,598
1,uniform,go,0,0,0.0,0,1,1,0.63223,599
1,uniform,go,0,0,0.0,0,1,1,0.54907,600
1,uniform,go,0,0,0.0,0,1,1,0.5491,601
1,uniform,stop,1,300,0.6,1,1,0,0.54893,602
1,uniform,go,0,0,0.0,0,1,1,0.63217,603
1,uniform,go,0,0,0.0,0,1,1,0.53255,604
1,uniform,go,0,0,0.0,0,1,1,0.56549,605
1,uniform,go,0,0,0.0,0,1,1,0.58228,606
1,uniform,stop,1,18,0.036563,0,0,1,0.68234,607
1,uniform,go,0,0,0.0,0,1,1,0.58241,608
1,uniform,go,0,0,0.0,0,1,1,0.5824,609
1,uniform,go,0,0,0.0,0,1,1,0.63236,610
1,uniform,stop,1,350,0.7,1,1,0,0.54883,611
1,uniform,stop,1,339,0.67973,0,1,0,0.56578,612
1,uniform,go,0,0,0.0,0,1,1,0.61573,613
1,uniform,go,0,0,0.0,0,1,1,0.58254,614
1,uniform,go,0,0,0.0,0,1,1,0.58224,615
1,uniform,stop,1,179,0.35961,0,0,1,0.66598,616
1,uniform,go,0,0,0.0,0,1,1,0.6158,617
1,uniform,stop,1,270,0.54088,0,0,1,0.68243,618
1,uniform,go,0,0,0.0,0,1,1,0.64894,619
1,uniform,stop,1,81,0.16357,0,0,1,0.66575,620
1,uniform,stop,1,52,0.10592,0,0,1,0.68225,621
1,uniform,stop,1,411,0.82357,0,1,0,0.53245,622
1,uniform,go,0,0,0.0,0,1,1,0.63239,623
1,uniform,go,0,0,0.0,0,1,1,0.49901,624
1,uniform,go,0,0,0.0,0,1,1,0.63227,625
1,uniform,go,0,0,0.0,0,1,1,0.59917,626
1,uniform,go,0,0,0.0,0,1,1,0.54895,627
1,uniform,go,0,0,0.0,0,1,1,0.51579,628
1,uniform,stop,1,200,0.4,1,0,1,0.68238,629
1,uniform,stop,1,12,0.024434,0,0,1,0.68229,630
1,uniform,go,0,0,0.0,0,1,1,0.59899,631
1,uniform,stop,1,400,0.8,1,1,0,0.58224,632
1,uniform,stop,1,351,0.7027,0,1,0,0.58225,633
1,uniform,go,0,0,0.0,0,1,1,0.59876,634
1,uniform,go,0,0,0.0,0,1,1,0.48232,635
1,uniform,go,0,0,0.0,0,1,1,0.58219,636
1,uniform,go,0,0,0.0,0,1,1,0.54847,637
1,uniform,stop,1,258,0.51656,0,0,1,0.68208,638
1,uniform,go,0,0,0.0,0,1,1,0.54891,639
1,uniform,go,0,0,0.0,0,1,1,0.54892,640
1,uniform,stop,1,250,0.5,1,1,0,0.51553,641
1,uniform,stop,1,200,0.4,1,0,1,0.68247,642
1,uniform,go,0,0,0.0,0,1,1,0.54898,643
1,uniform,go,0,0,0.0,0,1,1,0.59901,644
1,uniform,go,0,0,0.0,0,1,1,0.58235,645
1,uniform,go,0,0,0.0,0,1,1,0.54925,646
1,uniform,stop,1,447,0.89439,0,1,0,0.53183,647
1,uniform,go,0,0,0.0,0,1,1,0.56597,648
1,uniform,stop,1,300,0.6,1,1,0,0.51562,649
1,uniform,go,0,0,0.0,0,1,1,0.61562,650
1,uniform,go,0,0,0.0,0,1,1,0.56559,651
1,uniform,go,0,0,0.0,0,1,1,0.58233,652
1,uniform,stop,1,228,0.45789,0,0,1,0.68197,653
1,uniform,go,0,0,0.0,0,1,1,0.64936,654
1,uniform,go,0,0,0.0,0,1,1,0.59857,655
1,uniform,go,0,0,0.0,0,1,1,0.53202,656
1,uniform,go,0,0,0.0,0,1,1,0.56586,657
1,uniform,go,0,0,0.0,0,1,1,0.48235,658
1,uniform,go,0,0,0.0,0,1,1,0.58206,659
1,uniform,go,0,0,0.0,0,1,1,0.54908,660
1,uniform,go,0,0,0.0,0,1,1,0.54903,661
1,uniform,go,0,0,0.0,0,1,1,0.53229,662
1,uniform,go,0,0,0.0,0,1,1,0.56589,663
1,uniform,go,0,0,0.0,0,1,1,0.63221,664
1,uniform,go,0,0,0.0,0,1,1,0.59912,665
1,uniform,go,0,0,0.0,0,1,1,0.53225,666
1,uniform,go,0,0,0.0,0,1,1,0.53228,667
1,uniform,go,0,0,0.0,0,1,1,0.53231,668
1,uniform,go,0,0,0.0,0,1,1,0.53225,669
1,uniform,stop,1,450,0.9,0,1,0,0.49908,670
1,uniform,go,0,0,0.0,0,1,1,0.54899,671
1,uniform,go,0,0,0.0,0,1,1,0.56558,672
1,uniform,stop,1,200,0.4,1,0,1,0.68236,673
1,uniform,go,0,0,0.0,0,1,1,0.48196,674
1,uniform,go,0,0,0.0,0,1,1,0.59856,675
1,uniform,stop,1,21,0.04266,0,0,1,0.68182,676
1,uniform,go,0,0,0.0,0,1,1,0.54906,677
1,uniform,go,0,0,0.0,0,1,1,0.54914,678
1,uniform,stop,1,314,0.62892,0,0,1,0.68197,679
1,uniform,go,0,0,0.0,0,1,1,0.51592,680
1,uniform,go,0,0,0.0,0,1,1,0.5656,681
1,uniform,go,0,0,0.0,0,1,1,0.48227,682
1,uniform,go,0,0,0.0,0,1,1,0.56592,683
1,uniform,stop,1,311,0.62372,0,1,0,0.51562,684
1,uniform,stop,1,88,0.17712,0,0,1,0.68225,685
1,uniform,go,0,0,0.0,0,1,1,0.66565,686
1,uniform,go,0,0,0.0,0,1,1,0.6156,687
1,uniform,stop,1,278,0.5573,0,1,0,0.39896,688
1,uniform,go,0,0,0.0,0,1,1,0.58185,689
1,uniform,stop,1,27,0.054617,0,0,1,0.68243,690
1,uniform,stop,1,364,0.72951,0,1,0,0.549,691
1,uniform,go,0,0,0.0,0,1,1,0.68235,692
1,uniform,go,0,0,0.0,0,1,1,0.53205,693
1,uniform,go,0,0,0.0,0,1,1,0.51538,694
1,uniform,stop,1,300,0.6,1,1,0,0.46532,695
1,uniform,go,0,0,0.0,0,1,1,0.54889,696
1,uniform,go,0,0,0.0,0,1,1,0.58227,697
1,uniform,go,0,0,0.0,0,1,1,0.54858,698
1,uniform,go,0,0,0.0,0,1,1,0.51559,699
1,uniform,go,0,0,0.0,0,1,1,0.54891,700
1,uniform,go,0,0,0.0,0,1,1,0.49851,701
1,uniform,go,0,0,0.0,0,1,1,0.61526,702
1,uniform,go,0,0,0.0,0,1,1,0.49865,703
1,uniform,stop,1,189,0.37819,0,0,1,0.68252,704
1,uniform,stop,1,200,0.4,1,0,1,0.68199,705
1,uniform,stop,1,400,0.8,1,1,0,0.63241,706
1,uniform,go,0,0,0.0,0,1,1,0.59915,707
1,uniform,stop,1,383,0.76692,0,1,0,0.53183,708
1,uniform,go,0,0,0.0,0,1,1,0.5986,709
1,uniform,go,0,0,0.0,0,1,1,0.61553,710
1,uniform,go,0,0,0.0,0,1,1,0.53195,711
1,uniform,stop,1,96,0.19325,0,0,1,0.68197,712
1,uniform,stop,1,352,0.70434,0,1,0,0.56506,713
1,uniform,go,0,0,0.0,0,1,1,0.51518,714
1,uniform,go,0,0,0.0,0,1,1,0.51562,715
1,uniform,stop,1,91,0.18223,0,0,1,0.68251,716
1,uniform,stop,1,53,0.10789,0,0,1,0.68191,717
1,uniform,go,0,0,0.0,0,1,1,0.49889,718
1,uniform,go,0,0,0.0,0,1,1,0.58251,719
1,uniform,go,0,0,0.0,0,1,1,0.51555,720
1,uniform,go,0,0,0.0,0,1,1,0.58184,721
1,uniform,go,0,0,0.0,0,1,1,0.48197,722
1,uniform,go,0,0,0.0,0,1,1,0.54882,723
1,uniform,go,0,0,0.0,0,1,1,0.48193,724
1,uniform,go,0,0,0.0,0,1,1,0.5821,725
1,uniform,stop,1,400,0.8,1,1,0,0.43247,726
1,uniform,stop,1,350,0.7,1,1,0,0.53239,727
1,uniform,go,0,0,0.0,0,1,1,0.53259,728
1,uniform,stop,1,105,0.21015,0,0,1,0.68187,729
1,uniform,go,0,0,0.0,0,1,1,0.58191,730
1,uniform,stop,1,350,0.7,1,1,0,0.51532,731
1,uniform,stop,1,385,0.77095,0,1,0,0.58233,732
1,uniform,stop,1,386,0.7725,0,1,0,0.58243,733
1,uniform,go,0,0,0.0,0,1,1,0.63224,734
1,uniform,stop,1,89,0.17898,0,0,1,0.68191,735
1,uniform,go,0,0,0.0,0,1,1,0.49862,736
1,uniform,stop,1,112,0.22428,0,0,1,0.68195,737
1,uniform,go,0,0,0.0,0,1,1,0.51557,738
1,uniform,go,0,0,0.0,0,1,1,0.63231,739
1,uniform,go,0,0,0.0,0,1,1,0.56571,740
1,uniform,go,0,0,0.0,0,1,1,0.6153,741
1,uniform,stop,1,238,0.47749,0,0,1,0.68181,742
1,uniform,go,0,0,0.0,0,1,1,0.48246,743
1,uniform,go,0,0,0.0,0,1,1,0.51557,744
1,uniform,go,0,0,0.0,0,1,1,0.59899,745
1,uniform,go,0,0,0.0,0,1,1,0.54874,746
1,uniform,go,0,0,0.0,0,1,1,0.54862,747
1,uniform,go,0,0,0.0,0,1,1,0.56558,748
1,uniform,go,0,0,0.0,0,1,1,0.56574,749
1,uniform,stop,1,300,0.6,1,1,0,0.53182,750
1,uniform,stop,1,250,0.5,1,0,1,0.68186,751
1,uniform,stop,1,118,0.23644,0,0,1,0.68237,752
1,uniform,go,0,0,0.0,0,1,1,0.4655,753
1,uniform,stop,1,250,0.5,1,0,1,0.68225,754
1,uniform,stop,1,49,0.099095,0,0,1,0.6819,755
1,uniform,go,0,0,0.0,0,1,1,0.48259,756
1,uniform,go,0,0,0.0,0,1,1,0.5821,757
1,uniform,go,0,0,0.0,0,1,1,0.6489,758
1,uniform,go,0,0,0.0,0,1,1,0.46522,759
1,uniform,go,0,0,0.0,0,1,1,0.61545,760
1,uniform,go,0,0,0.0,0,1,1,0.59873,761
1,uniform,go,0,0,0.0,0,1,1,0.53196,762
1,uniform,go,0,0,0.0,0,1,1,0.56573,763
1,uniform,go,0,0,0.0,0,1,1,0.59862,764
1,uniform,stop,1,447,0.89589,0,1,0,0.5324,765
1,uniform,stop,1,22,0.044166,0,0,1,0.68222,766
1,uniform,stop,1,50,0.10153,0,0,1,0.68231,767
1,uniform,go,0,0,0.0,0,1,1,0.4819,768
1,uniform,go,0,0,0.0,0,1,1,0.58203,769
1,uniform,go,0,0,0.0,0,1,1,0.61587,770
1,uniform,go,0,0,0.0,0,1,1,0.499,771
1,uniform,go,0,0,0.0,0,1,1,0.53214,772
1,uniform,go,0,0,0.0,0,1,1,0.53192,773
1,uniform,go,0,0,0.0,0,1,1,0.46547,774
1,uniform,go,0,0,0.0,0,1,1,0.54841,775
1,uniform,go,0,0,0.0,0,1,1,0.53239,776
1,uniform,go,0,0,0.0,0,1,1,0.58208,777
1,uniform,go,0,0,0.0,0,1,1,0.58198,778
1,uniform,go,0,0,0.0,0,1,1,0.46522,779
1,uniform,go,0,0,0.0,0,1,1,0.51582,780
1,uniform,stop,1,186,0.37253,0,0,1,0.68208,781
1,uniform,go,0,0,0.0,0,1,1,0.58194,782
1,uniform,go,0,0,0.0,0,1,1,0.5486,783
1,uniform,go,0,0,0.0,0,1,1,0.63249,784
1,uniform,go,0,0,0.0,0,1,1,0.44908,785
1,uniform,go,0,0,0.0,0,1,1,0.48199,786
1,uniform,stop,1,260,0.5212,0,0,1,0.68222,787
1,uniform,stop,1,450,0.9,0,0,1,0.6817,788
1,uniform,stop,1,300,0.6,1,1,0,0.53236,789
1,uniform,go,0,0,0.0,0,1,1,0.56523,790
1,uniform,stop,1,186,0.37231,0,0,1,0.68209,791
1,uniform,stop,1,436,0.87255,0,1,0,0.53212,792
1,uniform,go,0,0,0.0,0,1,1,0.58204,793
1,uniform,go,0,0,0.0,0,1,1,0.58206,794
1,uniform,go,0,0,0.0,0,1,1,0.59905,795
1,uniform,go,0,0,0.0,0,1,1,0.54889,796
1,uniform,stop,1,400,0.8,1,1,0,0.54878,797
1,uniform,go,0,0,0.0,0,1,1,0.51539,798
1,uniform,stop,1,250,0.5,1,0,1,0.68191,799
1,uniform,go,0,0,0.0,0,1,1,0.5486,800
1,uniform,go,0,0,0.0,0,1,1,0.64871,801
1,uniform,stop,1,450,0.9,0,1,0,0.51531,802
1,uniform,stop,1,279,0.55828,0,0,1,0.68196,803
1,uniform,go,0,0,0.0,0,1,1,0.56557,804
1,uniform,go,0,0,0.0,0,1,1,0.53186,805
1,uniform,go,0,0,0.0,0,1,1,0.5487,806
1,uniform,stop,1,350,0.7,1,1,0,0.49906,807
1,uniform,stop,1,424,0.84909,0,1,0,0.53195,808
1,uniform,stop,1,250,0.5,1,0,1,0.68232,809
1,uniform,stop,1,405,0.81095,0,1,0,0.64872,810
1,uniform,go,0,0,0.0,0,1,1,0.68164,811
1,uniform,go,0,0,0.0,0,1,1,0.59868,812
1,uniform,go,0,0,0.0,0,1,1,0.51531,813
1,uniform,go,0,0,0.0,0,1,1,0.61556,814
1,uniform,stop,1,200,0.4,1,0,1,0.68199,815
1,uniform,go,0,0,0.0,0,1,1,0.61529,816
1,uniform,go,0,0,0.0,0,1,1,0.49906,817
1,uniform,stop,1,242,0.48455,0,0,1,0.68239,818
1,uniform,go,0,0,0.0,0,1,1,0.61528,819
1,uniform,go,0,0,0.0,0,1,1,0.54837,820
1,uniform,stop,1,432,0.86415,0,1,0,0.58185,821
1,uniform,go,0,0,0.0,0,1,1,0.58234,822
1,uniform,go,0,0,0.0,0,1,1,0.56576,823
1,uniform,go,0,0,0.0,0,1,1,0.53204,824
1,uniform,stop,1,378,0.75675,0,1,0,0.61527,825
1,uniform,go,0,0,0.0,0,1,1,0.51536,826
1,uniform,go,0,0,0.0,0,1,1,0.56546,827
1,uniform,stop,1,450,0.9,0,1,0,0.56566,828
1,uniform,go,0,0,0.0,0,1,1,0.64848,829
1,uniform,go,0,0,0.0,0,1,1,0.532,830
1,uniform,go,0,0,0.0,0,1,1,0.51612,831
1,uniform,go,0,0,0.0,0,1,1,0.59865,832
1,uniform,stop,1,400,0.8,1,1,0,0.44903,833
1,uniform,stop,1,333,0.66693,0,1,0,0.54882,834
1,uniform,go,0,0,0.0,0,1,1,0.5486,835
1,uniform,go,0,0,0.0,0,1,1,0.58238,836
1,uniform,go,0,0,0.0,0,1,1,0.49865,837
1,uniform,stop,1,36,0.072052,0,0,1,0.6819,838
1,uniform,go,0,0,0.0,0,1,1,0.54867,839
1,uniform,go,0,0,0.0,0,1,1,0.61531,840
1,uniform,stop,1,449,0.89971,0,1,0,0.49865,841
1,uniform,go,0,0,0.0,0,1,1,0.54862,842
1,uniform,go,0,0,0.0,0,1,1,0.51536,843
1,uniform,stop,1,123,0.24669,0,0,1,0.68178,844
1,uniform,go,0,0,0.0,0,1,1,0.63238,845
1,uniform,go,0,0,0.0,0,1,1,0.46574,846
1,uniform,stop,1,334,0.66846,0,1,0,0.46568,847
1,uniform,go,0,0,0.0,0,1,1,0.58237,848
1,uniform,go,0,0,0.0,0,1,1,0.51571,849
1,uniform,go,0,0,0.0,0,1,1,0.51576,850
1,uniform,go,0,0,0.0,0,1,1,0.51531,851
1,uniform,go,0,0,0.0,0,1,1,0.51519,852
1,uniform,go,0,0,0.0,0,1,1,0.5321,853
1,uniform,go,0,0,0.0,0,1,1,0.58257,854
1,uniform,go,0,0,0.0,0,1,1,0.53192,855
1,uniform,go,0,0,0.0,0,1,1,0.51577,856
1,uniform,go,0,0,0.0,0,1,1,0.53177,857
1,uniform,go,0,0,0.0,0,1,1,0.53241,858
1,uniform,go,0,0,0.0,0,1,1,0.53218,859
1,uniform,stop,1,392,0.78442,0,1,0,0.51514,860
1,uniform,go,0,0,0.0,0,1,1,0.5158,861
1,uniform,stop,1,194,0.38888,0,0,1,0.68242,862
1,uniform,stop,1,223,0.44653,0,0,1,0.68206,863
1,uniform,go,0,0,0.0,0,1,1,0.48244,864
1,uniform,go,0,0,0.0,0,1,1,0.63241,865
1,uniform,go,0,0,0.0,0,1,1,0.49896,866
1,uniform,go,0,0,0.0,0,1,1,0.51526,867
1,uniform,stop,1,300,0.6,1,1,0,0.54895,868
1,uniform,go,0,0,0.0,0,1,1,0.59861,869
1,uniform,go,0,0,0.0,0,1,1,0.54865,870
1,uniform,stop,1,441,0.88284,0,1,0,0.53256,871
1,uniform,stop,1,450,0.9,0,1,0,0.63205,872
1,uniform,stop,1,200,0.4,1,0,1,0.68226,873
1,uniform,go,0,0,0.0,0,1,1,0.63211,874
1,uniform,stop,1,350,0.7,1,1,0,0.53196,875
1,uniform,go,0,0,0.0,0,1,1,0.46576,876
1,uniform,go,0,0,0.0,0,1,1,0.51538,877
1,uniform,stop,1,326,0.65385,0,1,0,0.51549,878
1,uniform,stop,1,203,0.40673,0,0,1,0.68194,879
2,early,go,0,0,0.0,0,1,1,0.57204,0
2,early,go,0,0,0.0,0,1,1,0.51513,1
2,early,go,0,0,0.0,0,1,1,0.51549,2
2,early,go,0,0,0.0,0,1,1,0.53264,3
2,early,go,0,0,0.0,0,1,1,0.54894,4
2,early,go,0,0,0.0,0,1,1,0.44851,5
2,early,go,0,0,0.0,0,1,1,0.49871,6
2,early,go,0,0,0.0,0,1,1,0.54891,7
2,early,go,0,0,0.0,0,1,1,0.53217,8
2,early,go,0,0,0.0,0,1,1,0.58215,9
2,early,stop,1,350,0.7,1,1,0,0.51565,10
2,early,stop,1,200,0.4,1,0,1,0.68221,11
2,early,go,0,0,0.0,0,1,1,0.54909,12
2,early,go,0,0,0.0,0,1,1,0.49912,13
2,early,go,0,0,0.0,0,1,1,0.53182,14
2,early,go,0,0,0.0,0,1,1,0.58172,15
2,early,go,0,0,0.0,0,1,1,0.48216,16
2,early,stop,1,250,0.5,1,0,1,0.68194,17
2,early,go,0,0,0.0,0,1,1,0.48226,18
2,early,stop,1,281,0.56219,0,0,1,0.68184,19
2,early,stop,1,248,0.4979,0,0,1,0.68194,20
2,early,go,0,0,0.0,0,1,1,0.49887,21
2,early,stop,1,190,0.38019,0,0,1,0.68221,22
2,early,go,0,0,0.0,0,1,1,0.58227,23
2,early,go,0,0,0.0,0,1,1,0.49914,24
2,early,go,0,0,0.0,0,1,1,0.58191,25
2,early,go,0,0,0.0,0,1,1,0.48234,26
2,early,go,0,0,0.0,0,1,1,0.58189,27
2,early,go,0,0,0.0,0,1,1,0.48226,28
2,early,stop,1,221,0.44334,0,0,1,0.68245,29
2,early,stop,1,299,0.5992,0,1,0,0.4656,30
2,early,stop,1,400,0.8,1,1,0,0.58241,31
2,early,go,0,0,0.0,0,1,1,0.61574,32
2,early,stop,1,252,0.50542,0,0,1,0.68239,33
2,early,go,0,0,0.0,0,1,1,0.48192,34
2,early,go,0,0,0.0,0,1,1,0.51524,35
2,early,go,0,0,0.0,0,1,1,0.5822,36
2,early,stop,1,300,0.6,1,1,0,0.49876,37
2,early,go,0,0,0.0,0,1,1,0.49873,38
2,early,go,0,0,0.0,0,1,1,0.49918,39
2,early,go,0,0,0.0,0,1,1,0.51546,40
2,early,go,0,0,0.0,0,1,1,0.53233,41
2,early,stop,1,271,0.54394,0,0,1,0.68223,42
2,early,stop,1,250,0.5,1,0,1,0.68184,43
2,early,go,0,0,0.0,0,1,1,0.51571,44
2,early,go,0,0,0.0,0,1,1,0.54861,45
2,early,go,0,0,0.0,0,1,1,0.4989,46
2,early,stop,1,207,0.41548,0,0,1,0.68188,47
2,early,stop,1,350,0.7,1,1,0,0.48222,48
2,early,go,0,0,0.0,0,1,1,0.54901,49
2,early,go,0,0,0.0,0,1,1,0.49867,50
2,early,go,0,0,0.0,0,1,1,0.54868,51
2,early,go,0,0,0.0,0,1,1,0.49924,52
2,early,go,0,0,0.0,0,1,1,0.51561,53
2,early,go,0,0,0.0,0,1,1,0.51571,54
2,early,stop,1,244,0.48846,0,0,1,0.68201,55
2,early,go,0,0,0.0,0,1,1,0.49903,56
2,early,go,0,0,0.0,0,1,1,0.56517,57
2,early,go,0,0,0.0,0,1,1,0.53198,58
2,early,stop,1,288,0.57765,0,1,0,0.48228,59
2,early,go,0,0,0.0,0,1,1,0.51534,60
2,early,stop,1,297,0.59592,0,0,1,0.68218,61
2,early,go,0,0,0.0,0,1,1,0.4818,62
2,early,stop,1,222,0.44489,0,0,1,0.68209,63
2,early,go,0,0,0.0,0,1,1,0.58229,64
2,early,go,0,0,0.0,0,1,1,0.49894,65
2,early,go,0,0,0.0,0,1,1,0.56555,66
2,early,go,0,0,0.0,0,1,1,0.46578,67
2,early,go,0,0,0.0,0,1,1,0.49861,68
2,early,go,0,0,0.0,0,1,1,0.56558,69
2,early,go,0,0,0.0,0,1,1,0.51569,70
2,early,stop,1,275,0.55021,0,1,0,0.48191,71
2,early,stop,1,200,0.4,1,0,1,0.68221,72
2,early,go,0,0,0.0,0,1,1,0.58239,73
2,early,go,0,0,0.0,0,1,1,0.44899,74
2,early,go,0,0,0.0,0,1,1,0.49912,75
2,early,go,0,0,0.0,0,1,1,0.51529,76
2,early,stop,1,267,0.53422,0,0,1,0.6824,77
2,early,go,0,0,0.0,0,1,1,0.51516,78
2,early,go,0,0,0.0,0,1,1,0.51516,79
2,early,go,0,0,0.0,0,1,1,0.53255,80
2,early,go,0,0,0.0,0,1,1,0.5658,81
2,early,stop,1,275,0.55088,0,1,0,0.49905,82
2,early,go,0,0,0.0,0,1,1,0.54901,83
2,early,stop,1,239,0.47876,0,0,1,0.68194,84
2,early,go,0,0,0.0,0,1,1,0.56571,85
2,early,go,0,0,0.0,0,1,1,0.54904,86
2,early,stop,1,260,0.52057,0,0,1,0.68181,87
2,early,stop,1,261,0.52234,0,0,1,0.68235,88
2,early,go,0,0,0.0,0,1,1,0.4989,89
2,early,go,0,0,0.0,0,1,1,0.53212,90
2,early,go,0,0,0.0,0,1,1,0.49884,91
2,early,stop,1,273,0.547,0,0,1,0.68247,92
2,early,stop,1,288,0.57653,0,0,1,0.68184,93
2,early,stop,1,260,0.5219,0,0,1,0.68203,94
2,early,go,0,0,0.0,0,1,1,0.49885,95
2,early,stop,1,146,0.2939,0,0,1,0.66592,96
2,early,go,0,0,0.0,0,1,1,0.51551,97
2,early,stop,1,219,0.43946,0,0,1,0.68212,98
2,early,go,0,0,0.0,0,1,1,0.56557,99
2,early,go,0,0,0.0,0,1,1,0.54888,100
2,early,go,0,0,0.0,0,1,1,0.4819,101
2,early,stop,1,219,0.43954,0,0,1,0.68189,102
2,early,stop,1,300,0.6,1,0,1,0.6823,103
2,early,go,0,0,0.0,0,1,1,0.58184,104
2,early,go,0,0,0.0,0,1,1,0.54891,105
2,early,go,0,0,0.0,0,1,1,0.49904,106
2,early,go,0,0,0.0,0,1,1,0.4652,107
2,early,stop,1,400,0.8,1,1,0,0.49898,108
2,early,stop,1,261,0.52276,0,0,1,0.68193,109
2,early,go,0,0,0.0,0,1,1,0.57185,110
2,early,go,0,0,0.0,0,1,1,0.44851,111
2,early,go,0,0,0.0,0,1,1,0.46515,112
2,early,go,0,0,0.0,0,1,1,0.48252,113
2,early,go,0,0,0.0,0,1,1,0.4988,114
2,early,go,0,0,0.0,0,1,1,0.5486,115
2,early,go,0,0,0.0,0,1,1,0.56516,116
2,early,go,0,0,0.0,0,1,1,0.48202,117
2,early,go,0,0,0.0,0,1,1,0.53215,118
2,early,go,0,0,0.0,0,1,1,0.53192,119
2,early,go,0,0,0.0,0,1,1,0.54847,120
2,early,stop,1,200,0.4,1,0,1,0.68185,121
2,early,stop,1,350,0.7,1,1,0,0.51533,122
2,early,go,0,0,0.0,0,1,1,0.59886,123
2,early,stop,1,241,0.48257,0,0,1,0.68181,124
2,early,go,0,0,0.0,0,1,1,0.6152,125
2,early,stop,1,240,0.48082,0,0,1,0.68199,126
2,early,go,0,0,0.0,0,1,1,0.51549,127
2,early,stop,1,212,0.42551,0,0,1,0.68184,128
2,early,go,0,0,0.0,0,1,1,0.49838,129
2,early,stop,1,200,0.4,1,0,1,0.68193,130
2,early,go,0,0,0.0,0,1,1,0.49902,131
2,early,go,0,0,0.0,0,1,1,0.51518,132
2,early,go,0,0,0.0,0,1,1,0.4988,133
2,early,go,0,0,0.0,0,1,1,0.48264,134
2,early,stop,1,400,0.8,1,1,0,0.54882,135
2,early,go,0,0,0.0,0,1,1,0.56528,136
2,early,go,0,0,0.0,0,1,1,0.51529,137
2,early,stop,1,219,0.4387,0,0,1,0.68209,138
2,early,go,0,0,0.0,0,1,1,0.49849,139
2,early,go,0,0,0.0,0,1,1,0.532,140
2,early,go,0,0,0.0,0,1,1,0.51532,141
2,early,stop,1,217,0.4341,0,0,1,0.68193,142
2,early,go,0,0,0.0,0,1,1,0.5156,143
2,early,go,0,0,0.0,0,1,1,0.54854,144
2,early,stop,1,250,0.5,1,0,1,0.68225,145
2,early,go,0,0,0.0,0,1,1,0.53204,146
2,early,go,0,0,0.0,0,1,1,0.51538,147
2,early,stop,1,244,0.48864,0,0,1,0.68243,148
2,early,go,0,0,0.0,0,1,1,0.53208,149
2,early,go,0,0,0.0,0,1,1,0.58211,150
2,early,go,0,0,0.0,0,1,1,0.46522,151
2,early,go,0,0,0.0,0,1,1,0.49838,152
2,early,go,0,0,0.0,0,1,1,0.48201,153
2,early,go,0,0,0.0,0,1,1,0.51538,154
2,early,go,0,0,0.0,0,1,1,0.53184,155
2,early,go,0,0,0.0,0,1,1,0.51545,156
2,early,go,0,0,0.0,0,1,1,0.53235,157
2,early,go,0,0,0.0,0,1,1,0.51529,158
2,early,go,0,0,0.0,0,1,1,0.53257,159
2,early,go,0,0,0.0,0,1,1,0.5652,160
2,early,go,0,0,0.0,0,1,1,0.48235,161
2,early,go,0,0,0.0,0,1,1,0.53232,162
2,early,go,0,0,0.0,0,1,1,0.48231,163
2,early,go,0,0,0.0,0,1,1,0.49893,164
2,early,go,0,0,0.0,0,1,1,0.4991,165
2,early,stop,1,243,0.48654,0,0,1,0.68195,166
2,early,stop,1,256,0.51283,0,0,1,0.6822,167
2,early,go,0,0,0.0,0,1,1,0.53195,168
2,early,go,0,0,0.0,0,1,1,0.51532,169
2,early,stop,1,308,0.61775,0,0,1,0.68193,170
2,early,stop,1,271,0.54376,0,0,1,0.68202,171
2,early,stop,1,250,0.5,1,1,0,0.48182,172
2,early,stop,1,240,0.48172,0,0,1,0.68193,173
2,early,stop,1,306,0.61224,0,0,1,0.68193,174
2,early,go,0,0,0.0,0,1,1,0.58265,175
2,early,go,0,0,0.0,0,1,1,0.53193,176
2,early,go,0,0,0.0,0,1,1,0.58234,177
2,early,go,0,0,0.0,0,1,1,0.48195,178
2,early,stop,1,259,0.5183,0,0,1,0.68202,179
2,early,go,0,0,0.0,0,1,1,0.48221,180
2,early,stop,1,400,0.8,1,1,0,0.56528,181
2,early,stop,1,300,0.6,1,0,1,0.68191,182
2,early,go,0,0,0.0,0,1,1,0.56519,183
2,early,go,0,0,0.0,0,1,1,0.56555,184
2,early,go,0,0,0.0,0,1,1,0.51518,185
2,early,go,0,0,0.0,0,1,1,0.51521,186
2,early,stop,1,350,0.7,1,1,0,0.51585,187
2,early,go,0,0,0.0,0,1,1,0.53184,188
2,early,go,0,0,0.0,0,1,1,0.59858,189
2,early,go,0,0,0.0,0,1,1,0.48198,190
2,early,stop,1,303,0.60711,0,1,0,0.48193,191
2,early,go,0,0,0.0,0,1,1,0.54855,192
2,early,stop,1,278,0.55782,0,0,1,0.68131,193
2,early,go,0,0,0.0,0,1,1,0.48194,194
2,early,stop,1,225,0.45016,0,0,1,0.68187,195
2,early,stop,1,234,0.46888,0,0,1,0.68185,196
2,early,go,0,0,0.0,0,1,1,0.51547,197
2,early,stop,1,242,0.48532,0,0,1,0.68197,198
2,early,go,0,0,0.0,0,1,1,0.549,199
2,early,go,0,0,0.0,0,1,1,0.49858,200
2,early,stop,1,300,0.6,1,1,0,0.53243,201
2,early,stop,1,197,0.39457,0,0,1,0.68178,202
2,early,stop,1,241,0.48393,0,0,1,0.68183,203
2,early,go,0,0,0.0,0,1,1,0.6489,204
2,early,go,0,0,0.0,0,1,1,0.5319,205
2,early,go,0,0,0.0,0,1,1,0.54863,206
2,early,stop,1,254,0.50946,0,0,1,0.682,207
2,early,go,0,0,0.0,0,1,1,0.46527,208
2,early,stop,1,244,0.48978,0,0,1,0.68186,209
2,early,stop,1,213,0.42792,0,0,1,0.68186,210
2,early,go,0,0,0.0,0,1,1,0.53194,211
2,early,go,0,0,0.0,0,1,1,0.61527,212
2,early,go,0,0,0.0,0,1,1,0.44836,213
2,early,stop,1,265,0.53104,0,0,1,0.68193,214
2,early,stop,1,233,0.46613,0,0,1,0.68195,215
2,early,go,0,0,0.0,0,1,1,0.48172,216
2,early,go,0,0,0.0,0,1,1,0.49908,217
2,early,go,0,0,0.0,0,1,1,0.56526,218
2,early,go,0,0,0.0,0,1,1,0.46525,219
2,early,go,0,0,0.0,0,1,1,0.52222,220
2,early,go,0,0,0.0,0,1,1,0.46502,221
2,early,go,0,0,0.0,0,1,1,0.49895,222
2,early,go,0,0,0.0,0,1,1,0.49865,223
2,early,go,0,0,0.0,0,1,1,0.53214,224
2,early,go,0,0,0.0,0,1,1,0.48187,225
2,early,go,0,0,0.0,0,1,1,0.53183,226
2,early,go,0,0,0.0,0,1,1,0.51545,227
2,early,go,0,0,0.0,0,1,1,0.51543,228
2,early,go,0,0,0.0,0,1,1,0.53202,229
2,early,go,0,0,0.0,0,1,1,0.51553,230
2,early,stop,1,261,0.52353,0,0,1,0.68233,231
2,early,go,0,0,0.0,0,1,1,0.4991,232
2,early,go,0,0,0.0,0,1,1,0.56507,233
2,early,stop,1,261,0.5224,0,0,1,0.68202,234
2,early,go,0,0,0.0,0,1,1,0.49911,235
2,early,go,0,0,0.0,0,1,1,0.51572,236
2,early,go,0,0,0.0,0,1,1,0.51512,237
2,early,go,0,0,0.0,0,1,1,0.53182,238
2,early,stop,1,198,0.39618,0,0,1,0.68192,239
2,early,go,0,0,0.0,0,1,1,0.51526,240
2,early,go,0,0,0.0,0,1,1,0.59905,241
2,early,stop,1,200,0.4,1,0,1,0.68237,242
2,early,stop,1,218,0.43667,0,1,0,0.44884,243
2,early,stop,1,277,0.55511,0,0,1,0.66588,244
2,early,stop,1,283,0.56716,0,1,0,0.49882,245
2,early,go,0,0,0.0,0,1,1,0.49907,246
2,early,stop,1,350,0.7,1,1,0,0.51508,247
2,early,go,0,0,0.0,0,1,1,0.61562,248
2,early,stop,1,400,0.8,1,1,0,0.49909,249
2,early,go,0,0,0.0,0,1,1,0.51577,250
2,early,stop,1,400,0.8,1,1,0,0.48223,251
2,early,go,0,0,0.0,0,1,1,0.53241,252
2,early,go,0,0,0.0,0,1,1,0.49877,253
2,early,go,0,0,0.0,0,1,1,0.53229,254
2,early,stop,1,300,0.6,1,1,0,0.499,255
2,early,stop,1,219,0.43869,0,0,1,0.68177,256
2,early,go,0,0,0.0,0,1,1,0.51535,257
2,early,go,0,0,0.0,0,1,1,0.53229,258
2,early,stop,1,286,0.57252,0,0,1,0.68232,259
2,early,go,0,0,0.0,0,1,1,0.49889,260
2,early,go,0,0,0.0,0,1,1,0.51583,261
2,early,go,0,0,0.0,0,1,1,0.54884,262
2,early,go,0,0,0.0,0,1,1,0.58183,263
2,early,go,0,0,0.0,0,1,1,0.54922,264
2,early,go,0,0,0.0,0,1,1,0.53192,265
2,early,go,0,0,0.0,0,1,1,0.49892,266
2,early,go,0,0,0.0,0,1,1,0.53234,267
2,early,go,0,0,0.0,0,1,1,0.53242,268
2,early,stop,1,214,0.4282,0,0,1,0.68219,269
2,early,go,0,0,0.0,0,1,1,0.49885,270
2,early,go,0,0,0.0,0,1,1,0.51566,271
2,early,go,0,0,0.0,0,1,1,0.51557,272
2,early,stop,1,234,0.46871,0,0,1,0.6822,273
2,early,stop,1,253,0.50768,0,0,1,0.68221,274
2,early,stop,1,246,0.4934,0,0,1,0.68195,275
2,early,stop,1,262,0.5245,0,0,1,0.68229,276
2,early,go,0,0,0.0,0,1,1,0.49905,277
2,early,go,0,0,0.0,0,1,1,0.54882,278
2,early,go,0,0,0.0,0,1,1,0.56562,279
2,early,go,0,0,0.0,0,1,1,0.51545,280
2,early,go,0,0,0.0,0,1,1,0.54903,281
2,early,go,0,0,0.0,0,1,1,0.51558,282
2,early,go,0,0,0.0,0,1,1,0.49901,283
2,early,go,0,0,0.0,0,1,1,0.5992,284
2,early,go,0,0,0.0,0,1,1,0.49907,285
2,early,stop,1,230,0.4601,0,0,1,0.68167,286
2,early,stop,1,230,0.46092,0,0,1,0.68215,287
2,early,go,0,0,0.0,0,1,1,0.54897,288
2,early,go,0,0,0.0,0,1,1,0.51575,289
2,early,stop,1,214,0.42858,0,0,1,0.68225,290
2,early,stop,1,334,0.66971,0,1,0,0.53194,291
2,early,go,0,0,0.0,0,1,1,0.49861,292
2,early,go,0,0,0.0,0,1,1,0.53231,293
2,early,stop,1,271,0.54253,0,0,1,0.68184,294
2,early,go,0,0,0.0,0,1,1,0.53238,295
2,early,stop,1,200,0.4,1,0,1,0.68246,296
2,early,go,0,0,0.0,0,1,1,0.51574,297
2,early,go,0,0,0.0,0,1,1,0.49888,298
2,early,stop,1,242,0.48531,0,0,1,0.68222,299
2,early,stop,1,289,0.57901,0,1,0,0.49895,300
2,early,go,0,0,0.0,0,1,1,0.51584,301
2,early,go,0,0,0.0,0,1,1,0.51559,302
2,early,stop,1,190,0.38108,0,0,1,0.68222,303
2,early,stop,1,239,0.4782,0,0,1,0.68223,304
2,early,go,0,0,0.0,0,1,1,0.54904,305
2,early,go,0,0,0.0,0,1,1,0.54882,306
2,early,go,0,0,0.0,0,1,1,0.48203,307
2,early,go,0,0,0.0,0,1,1,0.53225,308
2,early,stop,1,300,0.6,1,1,0,0.49857,309
2,early,go,0,0,0.0,0,1,1,0.49898,310
2,early,stop,1,239,0.47982,0,0,1,0.68245,311
2,early,go,0,0,0.0,0,1,1,0.4822,312
2,early,stop,1,250,0.5,1,0,1,0.68214,313
2,early,go,0,0,0.0,0,1,1,0.51562,314
2,early,go,0,0,0.0,0,1,1,0.53216,315
2,early,go,0,0,0.0,0,1,1,0.51554,316
2,early,stop,1,282,0.56585,0,0,1,0.68234,317
2,early,stop,1,350,0.7,1,1,0,0.49883,318
2,early,go,0,0,0.0,0,1,1,0.5489,319
2,early,go,0,0,0.0,0,1,1,0.51573,320
2,early,go,0,0,0.0,0,1,1,0.5489,321
2,early,go,0,0,0.0,0,1,1,0.51565,322
2,early,go,0,0,0.0,0,1,1,0.56582,323
2,early,stop,1,250,0.5,1,0,1,0.68221,324
2,early,go,0,0,0.0,0,1,1,0.5657,325
2,early,go,0,0,0.0,0,1,1,0.49911,326
2,early,stop,1,245,0.49175,0,0,1,0.68234,327
2,early,go,0,0,0.0,0,1,1,0.51561,328
2,early,go,0,0,0.0,0,1,1,0.54902,329
2,early,go,0,0,0.0,0,1,1,0.54889,330
2,early,go,0,0,0.0,0,1,1,0.43225,331
2,early,go,0,0,0.0,0,1,1,0.48231,332
2,early,go,0,0,0.0,0,1,1,0.49865,333
2,early,go,0,0,0.0,0,1,1,0.53254,334
2,early,go,0,0,0.0,0,1,1,0.51547,335
2,early,go,0,0,0.0,0,1,1,0.58196,336
2,early,go,0,0,0.0,0,1,1,0.51533,337
2,early,go,0,0,0.0,0,1,1,0.49894,338
2,early,go,0,0,0.0,0,1,1,0.53233,339
2,early,go,0,0,0.0,0,1,1,0.48193,340
2,early,go,0,0,0.0,0,1,1,0.49899,341
2,early,stop,1,250,0.5,1,0,1,0.68189,342
2,early,stop,1,234,0.46976,0,0,1,0.68217,343
2,early,stop,1,231,0.46344,0,0,1,0.68199,344
2,early,go,0,0,0.0,0,1,1,0.51531,345
2,early,go,0,0,0.0,0,1,1,0.54915,346
2,early,go,0,0,0.0,0,1,1,0.53224,347
2,early,go,0,0,0.0,0,1,1,0.51574,348
2,early,stop,1,192,0.38529,0,0,1,0.68222,349
2,early,go,0,0,0.0,0,1,1,0.53229,350
2,early,go,0,0,0.0,0,1,1,0.5323,351
2,early,stop,1,223,0.44679,0,0,1,0.68239,352
2,early,go,0,0,0.0,0,1,1,0.53215,353
2,early,stop,1,235,0.47102,0,0,1,0.68216,354
2,early,stop,1,350,0.7,1,1,0,0.49876,355
2,early,go,0,0,0.0,0,1,1,0.54372,356
2,early,go,0,0,0.0,0,1,1,0.53246,357
2,early,stop,1,320,0.64024,0,1,0,0.51576,358
2,early,go,0,0,0.0,0,1,1,0.53238,359
2,early,go,0,0,0.0,0,1,1,0.51551,360
2,early,go,0,0,0.0,0,1,1,0.49901,361
2,early,go,0,0,0.0,0,1,1,0.51527,362
2,early,go,0,0,0.0,0,1,1,0.4986,363
2,early,go,0,0,0.0,0,1,1,0.4822,364
2,early,stop,1,283,0.56657,0,1,0,0.46561,365
2,early,stop,1,283,0.56795,0,1,0,0.53235,366
2,early,stop,1,234,0.46932,0,0,1,0.68226,367
2,early,stop,1,400,0.8,1,1,0,0.58231,368
2,early,stop,1,238,0.47666,0,0,1,0.68195,369
2,early,go,0,0,0.0,0,1,1,0.58237,370
2,early,stop,1,235,0.47139,0,0,1,0.6659,371
2,early,stop,1,173,0.34646,0,0,1,0.68165,372
2,early,stop,1,237,0.47479,0,0,1,0.6819,373
2,early,go,0,0,0.0,0,1,1,0.58195,374
2,early,go,0,0,0.0,0,1,1,0.53221,375
2,early,go,0,0,0.0,0,1,1,0.5319,376
2,early,go,0,0,0.0,0,1,1,0.51521,377
2,early,go,0,0,0.0,0,1,1,0.53235,378
2,early,go,0,0,0.0,0,1,1,0.49899,379
2,early,go,0,0,0.0,0,1,1,0.4989,380
2,early,go,0,0,0.0,0,1,1,0.49865,381
2,early,go,0,0,0.0,0,1,1,0.51514,382
2,early,stop,1,300,0.6,1,1,0,0.51514,383
2,early,go,0,0,0.0,0,1,1,0.56581,384
2,early,go,0,0,0.0,0,1,1,0.51521,385
2,early,stop,1,264,0.52895,0,0,1,0.68197,386
2,early,stop,1,301,0.60206,0,1,0,0.51528,387
2,early,go,0,0,0.0,0,1,1,0.53186,388
2,early,go,0,0,0.0,0,1,1,0.54926,389
2,early,go,0,0,0.0,0,1,1,0.58248,390
2,early,go,0,0,0.0,0,1,1,0.51564,391
2,early,stop,1,256,0.51236,0,0,1,0.68188,392
2,early,stop,1,311,0.62224,0,1,0,0.53203,393
2,early,stop,1,193,0.38768,0,0,1,0.68209,394
2,early,go,0,0,0.0,0,1,1,0.54857,395
2,early,go,0,0,0.0,0,1,1,0.54894,396
2,early,stop,1,400,0.8,1,1,0,0.53239,397
2,early,stop,1,274,0.54941,0,0,1,0.68185,398
2,early,go,0,0,0.0,0,1,1,0.58249,399
2,early,stop,1,284,0.56885,0,0,1,0.68235,400
2,early,go,0,0,0.0,0,1,1,0.59909,401
2,early,go,0,0,0.0,0,1,1,0.49908,402
2,early,stop,1,274,0.54995,0,0,1,0.6819,403
2,early,go,0,0,0.0,0,1,1,0.49844,404
2,early,go,0,0,0.0,0,1,1,0.51552,405
2,early,stop,1,350,0.7,1,1,0,0.49889,406
2,early,go,0,0,0.0,0,1,1,0.63237,407
2,early,stop,1,300,0.6,1,1,0,0.48183,408
2,early,stop,1,250,0.5,1,0,1,0.6715,409
2,early,stop,1,200,0.4,1,0,1,0.68236,410
2,early,go,0,0,0.0,0,1,1,0.4825,411
2,early,go,0,0,0.0,0,1,1,0.48184,412
2,early,go,0,0,0.0,0,1,1,0.49867,413
2,early,stop,1,299,0.59911,0,1,0,0.53186,414
2,early,go,0,0,0.0,0,1,1,0.51519,415
2,early,go,0,0,0.0,0,1,1,0.51549,416
2,early,go,0,0,0.0,0,1,1,0.51556,417
2,early,go,0,0,0.0,0,1,1,0.51528,418
2,early,go,0,0,0.0,0,1,1,0.51561,419
2,early,go,0,0,0.0,0,1,1,0.51566,420
2,early,go,0,0,0.0,0,1,1,0.53199,421
2,early,go,0,0,0.0,0,1,1,0.51533,422
2,early,go,0,0,0.0,0,1,1,0.54866,423
2,early,stop,1,200,0.4,1,0,1,0.68233,424
2,early,stop,1,255,0.51088,0,0,1,0.68235,425
2,early,go,0,0,0.0,0,1,1,0.48196,426
2,early,go,0,0,0.0,0,1,1,0.48206,427
2,early,go,0,0,0.0,0,1,1,0.49889,428
2,early,stop,1,206,0.4134,0,0,1,0.68179,429
2,early,go,0,0,0.0,0,1,1,0.49864,430
2,early,go,0,0,0.0,0,1,1,0.51578,431
2,early,go,0,0,0.0,0,1,1,0.56521,432
2,early,go,0,0,0.0,0,1,1,0.48237,433
2,early,go,0,0,0.0,0,1,1,0.51509,434
2,early,go,0,0,0.0,0,1,1,0.49846,435
2,early,stop,1,255,0.51008,0,0,1,0.68191,436
2,early,go,0,0,0.0,0,1,1,0.51531,437
2,early,go,0,0,0.0,0,1,1,0.5485,438
2,early,go,0,0,0.0,0,1,1,0.49852,439
2,early,go,0,0,0.0,0,1,1,0.61557,440
2,early,go,0,0,0.0,0,1,1,0.49856,441
2,early,go,0,0,0.0,0,1,1,0.49899,442
2,early,go,0,0,0.0,0,1,1,0.49852,443
2,early,go,0,0,0.0,0,1,1,0.51526,444
2,early,go,0,0,0.0,0,1,1,0.53228,445
2,early,go,0,0,0.0,0,1,1,0.51563,446
2,early,go,0,0,0.0,0,1,1,0.49901,447
2,early,go,0,0,0.0,0,1,1,0.48197,448
2,early,go,0,0,0.0,0,1,1,0.53202,449
2,early,go,0,0,0.0,0,1,1,0.51523,450
2,early,go,0,0,0.0,0,1,1,0.54855,451
2,early,go,0,0,0.0,0,1,1,0.51535,452
2,early,go,0,0,0.0,0,1,1,0.56522,453
2,early,go,0,0,0.0,0,1,1,0.49867,454
2,early,stop,1,243,0.4879,0,0,1,0.6818,455
2,early,stop,1,203,0.40634,0,0,1,0.68188,456
2,early,go,0,0,0.0,0,1,1,0.48191,457
2,early,go,0,0,0.0,0,1,1,0.51587,458
2,early,stop,1,200,0.4,1,0,1,0.68232,459
2,early,stop,1,279,0.55972,0,0,1,0.6818,460
2,early,go,0,0,0.0,0,1,1,0.48204,461
2,early,stop,1,281,0.56205,0,0,1,0.68216,462
2,early,stop,1,250,0.5,1,0,1,0.68219,463
2,early,go,0,0,0.0,0,1,1,0.53225,464
2,early,go,0,0,0.0,0,1,1,0.58198,465
2,early,go,0,0,0.0,0,1,1,0.499,466
2,early,go,0,0,0.0,0,1,1,0.48235,467
2,early,go,0,0,0.0,0,1,1,0.51519,468
2,early,stop,1,238,0.47723,0,0,1,0.68194,469
2,early,go,0,0,0.0,0,1,1,0.51527,470
2,early,go,0,0,0.0,0,1,1,0.51537,471
2,early,go,0,0,0.0,0,1,1,0.49857,472
2,early,go,0,0,0.0,0,1,1,0.49856,473
2,early,go,0,0,0.0,0,1,1,0.51556,474
2,early,go,0,0,0.0,0,1,1,0.5485,475
2,early,stop,1,181,0.36303,0,0,1,0.682,476
2,early,go,0,0,0.0,0,1,1,0.51528,477
2,early,stop,1,239,0.4792,0,0,1,0.68185,478
2,early,stop,1,220,0.44078,0,0,1,0.68251,479
2,early,go,0,0,0.0,0,1,1,0.51522,480
2,early,go,0,0,0.0,0,1,1,0.51562,481
2,early,stop,1,300,0.6,1,0,1,0.68249,482
2,early,stop,1,195,0.39015,0,0,1,0.68181,483
2,early,go,0,0,0.0,0,1,1,0.51551,484
2,early,go,0,0,0.0,0,1,1,0.53241,485
2,early,stop,1,264,0.52945,0,0,1,0.682,486
2,early,go,0,0,0.0,0,1,1,0.51532,487
2,early,stop,1,350,0.7,1,1,0,0.51501,488
2,early,stop,1,250,0.5,1,0,1,0.68232,489
2,early,go,0,0,0.0,0,1,1,0.51532,490
2,early,go,0,0,0.0,0,1,1,0.54856,491
2,early,go,0,0,0.0,0,1,1,0.53255,492
2,early,go,0,0,0.0,0,1,1,0.49885,493
2,early,go,0,0,0.0,0,1,1,0.54851,494
2,early,go,0,0,0.0,0,1,1,0.54902,495
2,early,stop,1,286,0.57265,0,1,0,0.48222,496
2,early,go,0,0,0.0,0,1,1,0.51541,497
2,early,stop,1,136,0.27376,0,0,1,0.68195,498
2,early,go,0,0,0.0,0,1,1,0.53247,499
2,early,go,0,0,0.0,0,1,1,0.49911,500
2,early,go,0,0,0.0,0,1,1,0.51524,501
2,early,go,0,0,0.0,0,1,1,0.54898,502
2,early,stop,1,251,0.50212,0,0,1,0.68225,503
2,early,go,0,0,0.0,0,1,1,0.48222,504
2,early,go,0,0,0.0,0,1,1,0.53191,505
2,early,stop,1,254,0.50844,0,0,1,0.68191,506
2,early,stop,1,400,0.8,1,1,0,0.56576,507
2,early,go,0,0,0.0,0,1,1,0.51511,508
2,early,stop,1,242,0.48507,0,0,1,0.68177,509
2,early,go,0,0,0.0,0,1,1,0.49847,510
2,early,go,0,0,0.0,0,1,1,0.53169,511
2,early,stop,1,233,0.46658,0,0,1,0.68208,512
2,early,go,0,0,0.0,0,1,1,0.51534,513
2,early,stop,1,211,0.42391,0,0,1,0.68236,514
2,early,go,0,0,0.0,0,1,1,0.5485,515
2,early,go,0,0,0.0,0,1,1,0.53202,516
2,early,stop,1,218,0.43725,0,0,1,0.68209,517
2,early,stop,1,301,0.6022,0,1,0,0.51553,518
2,early,go,0,0,0.0,0,1,1,0.53213,519
2,early,go,0,0,0.0,0,1,1,0.53188,520
2,early,go,0,0,0.0,0,1,1,0.49901,521
2,early,go,0,0,0.0,0,1,1,0.53192,522
2,early,stop,1,214,0.42899,0,0,1,0.68193,523
2,early,stop,1,350,0.7,1,1,0,0.51519,524
2,early,go,0,0,0.0,0,1,1,0.56508,525
2,early,go,0,0,0.0,0,1,1,0.4821,526
2,early,go,0,0,0.0,0,1,1,0.53171,527
2,early,go,0,0,0.0,0,1,1,0.49865,528
2,early,stop,1,200,0.4,1,0,1,0.68238,529
2,early,go,0,0,0.0,0,1,1,0.48202,530
2,early,go,0,0,0.0,0,1,1,0.54877,531
2,early,go,0,0,0.0,0,1,1,0.51541,532
2,early,go,0,0,0.0,0,1,1,0.49855,533
2,early,stop,1,291,0.58384,0,0,1,0.68247,534
2,early,go,0,0,0.0,0,1,1,0.54871,535
2,early,go,0,0,0.0,0,1,1,0.49863,536
2,early,stop,1,400,0.8,1,1,0,0.54848,537
2,early,go,0,0,0.0,0,1,1,0.56562,538
2,early,stop,1,318,0.63611,0,1,0,0.51502,539
2,early,stop,1,300,0.6,1,1,0,0.53226,540
2,early,stop,1,207,0.41577,0,0,1,0.68215,541
2,early,go,0,0,0.0,0,1,1,0.5318,542
2,early,go,0,0,0.0,0,1,1,0.53248,543
2,early,go,0,0,0.0,0,1,1,0.49888,544
2,early,go,0,0,0.0,0,1,1,0.53199,545
2,early,stop,1,201,0.40303,0,0,1,0.68207,546
2,early,stop,1,321,0.6435,0,1,0,0.46563,547
2,early,go,0,0,0.0,0,1,1,0.46526,548
2,early,go,0,0,0.0,0,1,1,0.51503,549
2,early,go,0,0,0.0,0,1,1,0.58225,550
2,early,go,0,0,0.0,0,1,1,0.49895,551
2,early,go,0,0,0.0,0,1,1,0.53187,552
2,early,go,0,0,0.0,0,1,1,0.51578,553
2,early,go,0,0,0.0,0,1,1,0.53224,554
2,early,go,0,0,0.0,0,1,1,0.51516,555
2,early,go,0,0,0.0,0,1,1,0.49895,556
2,early,go,0,0,0.0,0,1,1,0.51567,557
2,early,go,0,0,0.0,0,1,1,0.5159,558
2,early,go,0,0,0.0,0,1,1,0.5326,559
2,early,go,0,0,0.0,0,1,1,0.4825,560
2,early,stop,1,257,0.51503,0,0,1,0.68219,561
2,early,stop,1,241,0.48242,0,0,1,0.68187,562
2,early,go,0,0,0.0,0,1,1,0.51582,563
2,early,go,0,0,0.0,0,1,1,0.58281,564
2,early,stop,1,246,0.49359,0,0,1,0.68196,565
2,early,go,0,0,0.0,0,1,1,0.49903,566
2,early,go,0,0,0.0,0,1,1,0.53232,567
2,early,go,0,0,0.0,0,1,1,0.49915,568
2,early,stop,1,277,0.55448,0,0,1,0.68244,569
2,early,go,0,0,0.0,0,1,1,0.56564,570
2,early,go,0,0,0.0,0,1,1,0.51564,571
2,early,go,0,0,0.0,0,1,1,0.5152,572
2,early,stop,1,200,0.4,1,0,1,0.68224,573
2,early,stop,1,312,0.62589,0,1,0,0.51555,574
2,early,stop,1,300,0.6,1,1,0,0.53223,575
2,early,go,0,0,0.0,0,1,1,0.56531,576
2,early,stop,1,172,0.34589,0,0,1,0.66593,577
2,early,go,0,0,0.0,0,1,1,0.4657,578
2,early,go,0,0,0.0,0,1,1,0.53246,579
2,early,stop,1,267,0.53431,0,0,1,0.68193,580
2,early,stop,1,244,0.48811,0,0,1,0.68241,581
2,early,go,0,0,0.0,0,1,1,0.53241,582
2,early,go,0,0,0.0,0,1,1,0.49856,583
2,early,go,0,0,0.0,0,1,1,0.53228,584
2,early,stop,1,238,0.47759,0,0,1,0.68219,585
2,early,go,0,0,0.0,0,1,1,0.51573,586
2,early,go,0,0,0.0,0,1,1,0.53217,587
2,early,go,0,0,0.0,0,1,1,0.53234,588
2,early,go,0,0,0.0,0,1,1,0.56565,589
2,early,go,0,0,0.0,0,1,1,0.4989,590
2,early,stop,1,350,0.7,1,1,0,0.49905,591
2,early,go,0,0,0.0,0,1,1,0.56568,592
2,early,go,0,0,0.0,0,1,1,0.46546,593
2,early,stop,1,213,0.42742,0,0,1,0.68223,594
2,early,stop,1,201,0.40247,0,0,1,0.68243,595
2,early,stop,1,276,0.55357,0,0,1,0.68221,596
2,early,go,0,0,0.0,0,1,1,0.53232,597
2,early,stop,1,221,0.44332,0,0,1,0.68231,598
2,early,stop,1,256,0.51265,0,0,1,0.6825,599
2,early,go,0,0,0.0,0,1,1,0.51554,600
2,early,go,0,0,0.0,0,1,1,0.53232,601
2,early,go,0,0,0.0,0,1,1,0.54904,602
2,early,stop,1,242,0.48568,0,0,1,0.6822,603
2,early,go,0,0,0.0,0,1,1,0.51559,604
2,early,go,0,0,0.0,0,1,1,0.49916,605
2,early,go,0,0,0.0,0,1,1,0.54898,606
2,early,go,0,0,0.0,0,1,1,0.53209,607
2,early,go,0,0,0.0,0,1,1,0.49905,608
2,early,go,0,0,0.0,0,1,1,0.49901,609
2,early,go,0,0,0.0,0,1,1,0.49929,610
2,early,go,0,0,0.0,0,1,1,0.56554,611
2,early,stop,1,400,0.8,1,1,0,0.51565,612
2,early,go,0,0,0.0,0,1,1,0.51553,613
2,early,go,0,0,0.0,0,1,1,0.51564,614
2,early,go,0,0,0.0,0,1,1,0.53224,615
2,early,go,0,0,0.0,0,1,1,0.51549,616
2,early,stop,1,219,0.43939,0,0,1,0.68222,617
2,early,go,0,0,0.0,0,1,1,0.54891,618
2,early,go,0,0,0.0,0,1,1,0.58239,619
2,early,go,0,0,0.0,0,1,1,0.51566,620
2,early,stop,1,206,0.41342,0,0,1,0.68232,621
2,early,stop,1,250,0.5,1,0,1,0.68249,622
2,early,stop,1,198,0.39638,0,0,1,0.68224,623
2,early,stop,1,250,0.5,1,1,0,0.49888,624
2,early,stop,1,294,0.5897,0,1,0,0.53172,625
2,early,go,0,0,0.0,0,1,1,0.56534,626
2,early,go,0,0,0.0,0,1,1,0.51567,627
2,early,go,0,0,0.0,0,1,1,0.49895,628
2,early,go,0,0,0.0,0,1,1,0.51562,629
2,early,go,0,0,0.0,0,1,1,0.48231,630
2,early,stop,1,200,0.4,1,0,1,0.68227,631
2,early,stop,1,222,0.44578,0,0,1,0.68225,632
2,early,stop,1,400,0.8,1,1,0,0.51555,633
2,early,go,0,0,0.0,0,1,1,0.53175,634
2,early,go,0,0,0.0,0,1,1,0.51553,635
2,early,go,0,0,0.0,0,1,1,0.51571,636
2,early,go,0,0,0.0,0,1,1,0.51555,637
2,early,stop,1,250,0.50179,0,0,1,0.68191,638
2,early,go,0,0,0.0,0,1,1,0.54904,639
2,early,go,0,0,0.0,0,1,1,0.49886,640
2,early,go,0,0,0.0,0,1,1,0.48201,641
2,early,stop,1,300,0.6,1,1,0,0.49905,642
2,early,stop,1,291,0.58374,0,1,0,0.51588,643
2,early,go,0,0,0.0,0,1,1,0.53249,644
2,early,go,0,0,0.0,0,1,1,0.53218,645
2,early,go,0,0,0.0,0,1,1,0.5157,646
2,early,stop,1,320,0.64075,0,1,0,0.53187,647
2,early,stop,1,350,0.7,1,1,0,0.5153,648
2,early,go,0,0,0.0,0,1,1,0.51562,649
2,early,go,0,0,0.0,0,1,1,0.53136,650
2,early,go,0,0,0.0,0,1,1,0.53243,651
2,early,stop,1,245,0.49182,0,0,1,0.68221,652
2,early,go,0,0,0.0,0,1,1,0.51552,653
2,early,go,0,0,0.0,0,1,1,0.51555,654
2,early,go,0,0,0.0,0,1,1,0.51574,655
2,early,go,0,0,0.0,0,1,1,0.49886,656
2,early,go,0,0,0.0,0,1,1,0.53195,657
2,early,go,0,0,0.0,0,1,1,0.53222,658
2,early,stop,1,220,0.44,0,0,1,0.68219,659
2,early,go,0,0,0.0,0,1,1,0.54882,660
2,early,go,0,0,0.0,0,1,1,0.4656,661
2,early,go,0,0,0.0,0,1,1,0.5656,662
2,early,go,0,0,0.0,0,1,1,0.48255,663
2,early,go,0,0,0.0,0,1,1,0.5322,664
2,early,go,0,0,0.0,0,1,1,0.48194,665
2,early,go,0,0,0.0,0,1,1,0.49894,666
2,early,go,0,0,0.0,0,1,1,0.51575,667
2,early,go,0,0,0.0,0,1,1,0.49894,668
2,early,go,0,0,0.0,0,1,1,0.5319,669
2,early,stop,1,278,0.55799,0,1,0,0.48239,670
2,early,go,0,0,0.0,0,1,1,0.49905,671
2,early,stop,1,350,0.7,1,1,0,0.5323,672
2,early,go,0,0,0.0,0,1,1,0.54861,673
2,early,go,0,0,0.0,0,1,1,0.51571,674
2,early,stop,1,162,0.32503,0,0,1,0.68236,675
2,early,go,0,0,0.0,0,1,1,0.53244,676
2,early,go,0,0,0.0,0,1,1,0.51528,677
2,early,go,0,0,0.0,0,1,1,0.53227,678
2,early,go,0,0,0.0,0,1,1,0.565,679
2,early,go,0,0,0.0,0,1,1,0.48208,680
2,early,go,0,0,0.0,0,1,1,0.49924,681
2,early,go,0,0,0.0,0,1,1,0.53156,682
2,early,stop,1,269,0.53872,0,0,1,0.68199,683
2,early,stop,1,192,0.38563,0,0,1,0.68203,684
2,early,go,0,0,0.0,0,1,1,0.53198,685
2,early,go,0,0,0.0,0,1,1,0.53221,686
2,early,stop,1,257,0.51437,0,0,1,0.68227,687
2,early,go,0,0,0.0,0,1,1,0.56564,688
2,early,stop,1,262,0.52477,0,0,1,0.68235,689
2,early,go,0,0,0.0,0,1,1,0.49859,690
2,early,stop,1,275,0.55021,0,0,1,0.68183,691
2,early,go,0,0,0.0,0,1,1,0.48226,692
2,early,go,0,0,0.0,0,1,1,0.51522,693
2,early,go,0,0,0.0,0,1,1,0.499,694
2,early,stop,1,200,0.4,1,0,1,0.68215,695
2,early,go,0,0,0.0,0,1,1,0.51566,696
2,early,go,0,0,0.0,0,1,1,0.53206,697
2,early,go,0,0,0.0,0,1,1,0.49857,698
2,early,go,0,0,0.0,0,1,1,0.49883,699
2,early,go,0,0,0.0,0,1,1,0.48261,700
2,early,go,0,0,0.0,0,1,1,0.51513,701
2,early,go,0,0,0.0,0,1,1,0.4989,702
2,early,go,0,0,0.0,0,1,1,0.51563,703
2,early,stop,1,244,0.48827,0,0,1,0.68188,704
2,early,stop,1,248,0.49708,0,0,1,0.68222,705
2,early,stop,1,350,0.7,1,1,0,0.53221,706
2,early,go,0,0,0.0,0,1,1,0.5656,707
2,early,stop,1,291,0.58353,0,1,0,0.49862,708
2,early,go,0,0,0.0,0,1,1,0.51565,709
2,early,go,0,0,0.0,0,1,1,0.48228,710
2,early,go,0,0,0.0,0,1,1,0.54901,711
2,early,stop,1,228,0.45691,0,0,1,0.68226,712
2,early,stop,1,262,0.52471,0,0,1,0.68224,713
2,early,go,0,0,0.0,0,1,1,0.53233,714
2,early,go,0,0,0.0,0,1,1,0.51531,715
2,early,stop,1,203,0.40642,0,0,1,0.68228,716
2,early,stop,1,196,0.39275,0,0,1,0.666,717
2,early,go,0,0,0.0,0,1,1,0.4821,718
2,early,go,0,0,0.0,0,1,1,0.53249,719
2,early,go,0,0,0.0,0,1,1,0.53213,720
2,early,go,0,0,0.0,0,1,1,0.53248,721
2,early,go,0,0,0.0,0,1,1,0.48182,722
2,early,go,0,0,0.0,0,1,1,0.51556,723
2,early,stop,1,200,0.4,1,0,1,0.68187,724
2,early,stop,1,400,0.8,1,1,0,0.54901,725
2,early,stop,1,250,0.5,1,0,1,0.68243,726
2,early,go,0,0,0.0,0,1,1,0.5653,727
2,early,stop,1,192,0.38545,0,0,1,0.68229,728
2,early,stop,1,250,0.5,1,0,1,0.68185,729
2,early,go,0,0,0.0,0,1,1,0.46562,730
2,early,go,0,0,0.0,0,1,1,0.56559,731
2,early,stop,1,296,0.59393,0,0,1,0.68193,732
2,early,stop,1,291,0.58351,0,1,0,0.5158,733
2,early,go,0,0,0.0,0,1,1,0.51524,734
2,early,stop,1,205,0.41141,0,0,1,0.68238,735
2,early,go,0,0,0.0,0,1,1,0.53226,736
2,early,stop,1,400,0.8,1,1,0,0.49911,737
2,early,stop,1,204,0.40866,0,0,1,0.68222,738
2,early,go,0,0,0.0,0,1,1,0.48197,739
2,early,go,0,0,0.0,0,1,1,0.53234,740
2,early,go,0,0,0.0,0,1,1,0.54891,741
2,early,stop,1,245,0.49184,0,0,1,0.68188,742
2,early,go,0,0,0.0,0,1,1,0.49843,743
2,early,go,0,0,0.0,0,1,1,0.49854,744
2,early,go,0,0,0.0,0,1,1,0.53194,745
2,early,go,0,0,0.0,0,1,1,0.54861,746
2,early,go,0,0,0.0,0,1,1,0.49915,747
2,early,go,0,0,0.0,0,1,1,0.51528,748
2,early,go,0,0,0.0,0,1,1,0.51518,749
2,early,stop,1,300,0.6,1,1,0,0.53238,750
2,early,stop,1,250,0.50121,0,0,1,0.68195,751
2,early,stop,1,216,0.43275,0,0,1,0.682,752
2,early,go,0,0,0.0,0,1,1,0.4992,753
2,early,stop,1,300,0.6,1,1,0,0.53175,754
2,early,stop,1,198,0.39683,0,0,1,0.68235,755
2,early,go,0,0,0.0,0,1,1,0.54856,756
2,early,go,0,0,0.0,0,1,1,0.54874,757
2,early,go,0,0,0.0,0,1,1,0.5157,758
2,early,go,0,0,0.0,0,1,1,0.49854,759
2,early,go,0,0,0.0,0,1,1,0.54852,760
2,early,go,0,0,0.0,0,1,1,0.58191,761
2,early,go,0,0,0.0,0,1,1,0.48189,762
2,early,go,0,0,0.0,0,1,1,0.5486,763
2,early,go,0,0,0.0,0,1,1,0.49862,764
2,early,stop,1,295,0.59199,0,1,0,0.4823,765
2,early,stop,1,189,0.37804,0,0,1,0.68188,766
2,early,go,0,0,0.0,0,1,1,0.49868,767
2,early,go,0,0,0.0,0,1,1,0.53186,768
2,early,go,0,0,0.0,0,1,1,0.49854,769
2,early,go,0,0,0.0,0,1,1,0.58873,770
2,early,go,0,0,0.0,0,1,1,0.482,771
2,early,go,0,0,0.0,0,1,1,0.46573,772
2,early,go,0,0,0.0,0,1,1,0.51555,773
2,early,go,0,0,0.0,0,1,1,0.4986,774
2,early,go,0,0,0.0,0,1,1,0.48243,775
2,early,go,0,0,0.0,0,1,1,0.53214,776
2,early,go,0,0,0.0,0,1,1,0.49893,777
2,early,go,0,0,0.0,0,1,1,0.48202,778
2,early,go,0,0,0.0,0,1,1,0.51554,779
2,early,go,0,0,0.0,0,1,1,0.49853,780
2,early,stop,1,345,0.69113,0,1,0,0.48194,781
2,early,go,0,0,0.0,0,1,1,0.4987,782
2,early,go,0,0,0.0,0,1,1,0.51535,783
2,early,go,0,0,0.0,0,1,1,0.5653,784
2,early,go,0,0,0.0,0,1,1,0.5319,785
2,early,go,0,0,0.0,0,1,1,0.51564,786
2,early,stop,1,262,0.52509,0,0,1,0.68168,787
2,early,stop,1,273,0.54628,0,1,0,0.53203,788
2,early,stop,1,400,0.8,1,1,0,0.49864,789
2,early,go,0,0,0.0,0,1,1,0.54883,790
2,early,stop,1,251,0.50254,0,0,1,0.68238,791
2,early,stop,1,269,0.5395,0,0,1,0.68188,792
2,early,go,0,0,0.0,0,1,1,0.51521,793
2,early,go,0,0,0.0,0,1,1,0.54904,794
2,early,go,0,0,0.0,0,1,1,0.53251,795
2,early,go,0,0,0.0,0,1,1,0.48194,796
2,early,stop,1,250,0.5,1,0,1,0.68193,797
2,early,go,0,0,0.0,0,1,1,0.51515,798
2,early,stop,1,300,0.6,1,1,0,0.54853,799
2,early,go,0,0,0.0,0,1,1,0.53189,800
2,early,go,0,0,0.0,0,1,1,0.49859,801
2,early,stop,1,237,0.47448,0,0,1,0.68238,802
2,early,stop,1,251,0.50378,0,1,0,0.48227,803
2,early,go,0,0,0.0,0,1,1,0.53197,804
2,early,go,0,0,0.0,0,1,1,0.49842,805
2,early,go,0,0,0.0,0,1,1,0.51524,806
2,early,stop,1,350,0.7,1,1,0,0.56531,807
2,early,stop,1,257,0.51549,0,0,1,0.68227,808
2,early,stop,1,400,0.8,1,1,0,0.54862,809
2,early,stop,1,302,0.60427,0,1,0,0.53236,810
2,early,go,0,0,0.0,0,1,1,0.54892,811
2,early,go,0,0,0.0,0,1,1,0.51514,812
2,early,go,0,0,0.0,0,1,1,0.599,813
2,early,go,0,0,0.0,0,1,1,0.51527,814
2,early,stop,1,200,0.4,1,0,1,0.68249,815
2,early,stop,1,280,0.56138,0,0,1,0.68187,816
2,early,go,0,0,0.0,0,1,1,0.48192,817
2,early,go,0,0,0.0,0,1,1,0.53189,818
2,early,stop,1,300,0.6006,0,1,0,0.51539,819
2,early,go,0,0,0.0,0,1,1,0.49869,820
2,early,go,0,0,0.0,0,1,1,0.5156,821
2,early,stop,1,317,0.63407,0,1,0,0.53202,822
2,early,go,0,0,0.0,0,1,1,0.56571,823
2,early,go,0,0,0.0,0,1,1,0.51538,824
2,early,go,0,0,0.0,0,1,1,0.53192,825
2,early,stop,1,249,0.49807,0,0,1,0.68222,826
2,early,go,0,0,0.0,0,1,1,0.51519,827
2,early,go,0,0,0.0,0,1,1,0.48191,828
2,early,stop,1,259,0.51903,0,0,1,0.68162,829
2,early,go,0,0,0.0,0,1,1,0.4986,830
2,early,go,0,0,0.0,0,1,1,0.51577,831
2,early,go,0,0,0.0,0,1,1,0.53256,832
2,early,go,0,0,0.0,0,1,1,0.549,833
2,early,stop,1,300,0.6,1,1,0,0.48212,834
2,early,stop,1,240,0.48083,0,0,1,0.68196,835
2,early,go,0,0,0.0,0,1,1,0.51582,836
2,early,go,0,0,0.0,0,1,1,0.51562,837
2,early,go,0,0,0.0,0,1,1,0.54853,838
2,early,stop,1,278,0.55624,0,0,1,0.68194,839
2,early,go,0,0,0.0,0,1,1,0.51525,840
2,early,go,0,0,0.0,0,1,1,0.56516,841
2,early,go,0,0,0.0,0,1,1,0.53187,842
2,early,go,0,0,0.0,0,1,1,0.49922,843
2,early,go,0,0,0.0,0,1,1,0.532,844
2,early,stop,1,232,0.465,0,0,1,0.68205,845
2,early,go,0,0,0.0,0,1,1,0.51521,846
2,early,go,0,0,0.0,0,1,1,0.4987,847
2,early,stop,1,345,0.69105,0,1,0,0.53241,848
2,early,go,0,0,0.0,0,1,1,0.51518,849
2,early,go,0,0,0.0,0,1,1,0.48185,850
2,early,go,0,0,0.0,0,1,1,0.53219,851
2,early,go,0,0,0.0,0,1,1,0.49856,852
2,early,go,0,0,0.0,0,1,1,0.51587,853
2,early,go,0,0,0.0,0,1,1,0.53202,854
2,early,go,0,0,0.0,0,1,1,0.4986,855
2,early,stop,1,200,0.4,1,0,1,0.68188,856
2,early,go,0,0,0.0,0,1,1,0.482,857
2,early,go,0,0,0.0,0,1,1,0.48206,858
2,early,go,0,0,0.0,0,1,1,0.5485,859
2,early,go,0,0,0.0,0,1,1,0.49885,860
2,early,stop,1,275,0.55015,0,0,1,0.68243,861
2,early,go,0,0,0.0,0,1,1,0.5158,862
2,early,stop,1,255,0.51097,0,0,1,0.68202,863
2,early,stop,1,256,0.51361,0,0,1,0.68242,864
2,early,go,0,0,0.0,0,1,1,0.53195,865
2,early,go,0,0,0.0,0,1,1,0.49865,866
2,early,go,0,0,0.0,0,1,1,0.49855,867
2,early,stop,1,350,0.7,1,1,0,0.53169,868
2,early,go,0,0,0.0,0,1,1,0.56532,869
2,early,go,0,0,0.0,0,1,1,0.54845,870
2,early,stop,1,296,0.59361,0,1,0,0.46532,871
2,early,stop,1,238,0.47751,0,0,1,0.6819,872
2,early,go,0,0,0.0,0,1,1,0.48207,873
2,early,go,0,0,0.0,0,1,1,0.53195,874
2,early,stop,1,250,0.5,1,0,1,0.68222,875
2,early,go,0,0,0.0,0,1,1,0.46558,876
2,early,go,0,0,0.0,0,1,1,0.54854,877
2,early,stop,1,222,0.44468,0,0,1,0.68183,878
2,early,stop,1,203,0.40761,0,0,1,0.68222,879
3,uniform,go,0,0,0.0,0,1,1,0.58288,0
3,uniform,go,0,0,0.0,0,1,1,0.68161,1
3,uniform,go,0,0,0.0,0,1,1,0.44881,2
3,uniform,go,0,0,0.0,0,1,1,0.48241,3
3,uniform,go,0,0,0.0,0,1,1,0.49906,4
3,uniform,go,0,0,0.0,0,1,1,0.53228,5
3,uniform,go,0,0,0.0,0,1,1,0.499,6
3,uniform,go,0,0,0.0,0,1,1,0.49865,7
3,uniform,go,0,0,0.0,0,1,1,0.51576,8
3,uniform,go,0,0,0.0,0,1,1,0.54916,9
3,uniform,stop,1,200,0.4,1,0,1,0.6823,10
3,uniform,stop,1,250,0.5,1,0,1,0.68224,11
3,uniform,go,0,0,0.0,0,1,1,0.56555,12
3,uniform,go,0,0,0.0,0,1,1,0.46563,13
3,uniform,go,0,0,0.0,0,1,1,0.53217,14
3,uniform,go,0,0,0.0,0,1,1,0.51575,15
3,uniform,go,0,0,0.0,0,1,1,0.49884,16
3,uniform,stop,1,400,0.8,1,1,0,0.48219,17
3,uniform,go,0,0,0.0,0,1,1,0.54882,18
3,uniform,stop,1,15,0.031833,0,0,1,0.68209,19
3,uniform,stop,1,222,0.44559,0,0,1,0.68216,20
3,uniform,go,0,0,0.0,0,1,1,0.5654,21
3,uniform,stop,1,219,0.43874,0,0,1,0.68183,22
3,uniform,go,0,0,0.0,0,1,1,0.38195,23
3,uniform,go,0,0,0.0,0,1,1,0.56545,24
3,uniform,go,0,0,0.0,0,1,1,0.44853,25
3,uniform,go,0,0,0.0,0,1,1,0.51539,26
3,uniform,go,0,0,0.0,0,1,1,0.51545,27
3,uniform,go,0,0,0.0,0,1,1,0.5157,28
3,uniform,stop,1,48,0.097132,0,0,1,0.68164,29
3,uniform,stop,1,327,0.65574,0,1,0,0.28173,30
3,uniform,stop,1,300,0.6,1,1,0,0.51543,31
3,uniform,go,0,0,0.0,0,1,1,0.53213,32
3,uniform,go,0,0,0.0,0,1,1,0.56522,33
3,uniform,go,0,0,0.0,0,1,1,0.4986,34
3,uniform,go,0,0,0.0,0,1,1,0.46558,35
3,uniform,go,0,0,0.0,0,1,1,0.49881,36
3,uniform,stop,1,350,0.7,1,1,0,0.49895,37
3,uniform,go,0,0,0.0,0,1,1,0.58233,38
3,uniform,go,0,0,0.0,0,1,1,0.46581,39
3,uniform,go,0,0,0.0,0,1,1,0.51571,40
3,uniform,go,0,0,0.0,0,1,1,0.48218,41
3,uniform,stop,1,354,0.70936,0,1,0,0.51587,42
3,uniform,stop,1,300,0.6,1,1,0,0.54885,43
3,uniform,go,0,0,0.0,0,1,1,0.58226,44
3,uniform,go,0,0,0.0,0,1,1,0.51574,45
3,uniform,go,0,0,0.0,0,1,1,0.53195,46
3,uniform,stop,1,424,0.84913,0,1,0,0.51546,47
3,uniform,stop,1,400,0.8,1,1,0,0.54904,48
3,uniform,go,0,0,0.0,0,1,1,0.53191,49
3,uniform,go,0,0,0.0,0,1,1,0.51576,50
3,uniform,go,0,0,0.0,0,1,1,0.49824,51
3,uniform,go,0,0,0.0,0,1,1,0.51555,52
3,uniform,go,0,0,0.0,0,1,1,0.54852,53
3,uniform,go,0,0,0.0,0,1,1,0.51566,54
3,uniform,stop,1,323,0.64631,0,1,0,0.51508,55
3,uniform,go,0,0,0.0,0,1,1,0.5158,56
3,uniform,go,0,0,0.0,0,1,1,0.51525,57
3,uniform,go,0,0,0.0,0,1,1,0.51515,58
3,uniform,stop,1,138,0.27603,0,0,1,0.68193,59
3,uniform,go,0,0,0.0,0,1,1,0.58224,60
3,uniform,stop,1,17,0.034446,0,0,1,0.68213,61
3,uniform,go,0,0,0.0,0,1,1,0.53177,62
3,uniform,stop,1,353,0.70605,0,1,0,0.49912,63
3,uniform,go,0,0,0.0,0,1,1,0.54891,64
3,uniform,stop,1,450,0.9,0,1,0,0.53179,65
3,uniform,go,0,0,0.0,0,1,1,0.49855,66
3,uniform,go,0,0,0.0,0,1,1,0.49882,67
3,uniform,go,0,0,0.0,0,1,1,0.58231,68
3,uniform,go,0,0,0.0,0,1,1,0.49897,69
3,uniform,go,0,0,0.0,0,1,1,0.51519,70
3,uniform,stop,1,450,0.9,0,1,0,0.5153,71
3,uniform,stop,1,250,0.5,1,0,1,0.68242,72
3,uniform,go,0,0,0.0,0,1,1,0.33188,73
3,uniform,go,0,0,0.0,0,1,1,0.59889,74
3,uniform,go,0,0,0.0,0,1,1,0.49844,75
3,uniform,go,0,0,0.0,0,1,1,0.4989,76
3,uniform,stop,1,378,0.75774,0,1,0,0.53209,77
3,uniform,go,0,0,0.0,0,1,1,0.51562,78
3,uniform,go,0,0,0.0,0,1,1,0.49891,79
3,uniform,go,0,0,0.0,0,1,1,0.5323,80
3,uniform,go,0,0,0.0,0,1,1,0.53221,81
3,uniform,stop,1,196,0.39223,0,0,1,0.68232,82
3,uniform,go,0,0,0.0,0,1,1,0.2656,83
3,uniform,stop,1,327,0.65548,0,1,0,0.54864,84
3,uniform,go,0,0,0.0,0,1,1,0.59904,85
3,uniform,go,0,0,0.0,0,1,1,0.48203,86
3,uniform,stop,1,85,0.17119,0,0,1,0.68183,87
3,uniform,stop,1,397,0.7952,0,1,0,0.58206,88
3,uniform,go,0,0,0.0,0,1,1,0.46506,89
3,uniform,go,0,0,0.0,0,1,1,0.54895,90
3,uniform,go,0,0,0.0,0,1,1,0.6824,91
3,uniform,stop,1,17,0.035712,0,0,1,0.68235,92
3,uniform,stop,1,377,0.75469,0,1,0,0.21519,93
3,uniform,stop,1,93,0.18687,0,0,1,0.68238,94
3,uniform,go,0,0,0.0,0,1,1,0.49889,95
3,uniform,stop,1,411,0.82346,0,1,0,0.4823,96
3,uniform,go,0,0,0.0,0,1,1,0.61568,97
3,uniform,stop,1,244,0.48976,0,0,1,0.68211,98
3,uniform,go,0,0,0.0,0,1,1,0.51523,99
3,uniform,go,0,0,0.0,0,1,1,0.51523,100
3,uniform,go,0,0,0.0,0,1,1,0.49869,101
3,uniform,stop,1,339,0.6797,0,1,0,0.49892,102
3,uniform,stop,1,350,0.7,1,1,0,0.56556,103
3,uniform,go,0,0,0.0,0,1,1,0.5823,104
3,uniform,go,0,0,0.0,0,1,1,0.4986,105
3,uniform,go,0,0,0.0,0,1,1,0.5653,106
3,uniform,go,0,0,0.0,0,1,1,0.51527,107
3,uniform,stop,1,200,0.4,1,0,1,0.68231,108
3,uniform,stop,1,158,0.3171,0,0,1,0.6823,109
3,uniform,go,0,0,0.0,0,1,1,0.6155,110
3,uniform,go,0,0,0.0,0,1,1,0.48213,111
3,uniform,go,0,0,0.0,0,1,1,0.49898,112
3,uniform,go,0,0,0.0,0,1,1,0.51553,113
3,uniform,go,0,0,0.0,0,1,1,0.51572,114
3,uniform,go,0,0,0.0,0,1,1,0.49863,115
3,uniform,go,0,0,0.0,0,1,1,0.51577,116
3,uniform,go,0,0,0.0,0,1,1,0.5489,117
3,uniform,go,0,0,0.0,0,1,1,0.46571,118
3,uniform,go,0,0,0.0,0,1,1,0.49869,119
3,uniform,go,0,0,0.0,0,1,1,0.53183,120
3,uniform,stop,1,250,0.5,1,0,1,0.68192,121
3,uniform,stop,1,200,0.4,1,0,1,0.6822,122
3,uniform,go,0,0,0.0,0,1,1,0.56535,123
3,uniform,stop,1,215,0.43021,0,0,1,0.68193,124
3,uniform,go,0,0,0.0,0,1,1,0.66559,125
3,uniform,stop,1,155,0.3111,0,0,1,0.68205,126
3,uniform,go,0,0,0.0,0,1,1,0.41524,127
3,uniform,stop,1,92,0.18482,0,0,1,0.68218,128
3,uniform,go,0,0,0.0,0,1,1,0.249,129
3,uniform,stop,1,250,0.5,1,0,1,0.68246,130
3,uniform,go,0,0,0.0,0,1,1,0.48182,131
3,uniform,go,0,0,0.0,0,1,1,0.54866,132
3,uniform,go,0,0,0.0,0,1,1,0.49886,133
3,uniform,go,0,0,0.0,0,1,1,0.49909,134
3,uniform,stop,1,400,0.8,1,1,0,0.53203,135
3,uniform,go,0,0,0.0,0,1,1,0.53194,136
3,uniform,go,0,0,0.0,0,1,1,0.51518,137
3,uniform,stop,1,97,0.19476,0,0,1,0.68169,138
3,uniform,go,0,0,0.0,0,1,1,0.51555,139
3,uniform,go,0,0,0.0,0,1,1,0.51567,140
3,uniform,go,0,0,0.0,0,1,1,0.49929,141
3,uniform,stop,1,103,0.20774,0,0,1,0.68187,142
3,uniform,go,0,0,0.0,0,1,1,0.53227,143
3,uniform,go,0,0,0.0,0,1,1,0.49872,144
3,uniform,stop,1,300,0.6,1,1,0,0.49861,145
3,uniform,go,0,0,0.0,0,1,1,0.46539,146
3,uniform,stop,1,150,0.30125,0,0,1,0.68221,147
3,uniform,go,0,0,0.0,0,1,1,0.51521,148
3,uniform,go,0,0,0.0,0,1,1,0.51534,149
3,uniform,go,0,0,0.0,0,1,1,0.49894,150
3,uniform,stop,1,255,0.51077,0,0,1,0.68194,151
3,uniform,go,0,0,0.0,0,1,1,0.54862,152
3,uniform,go,0,0,0.0,0,1,1,0.53183,153
3,uniform,go,0,0,0.0,0,1,1,0.51519,154
3,uniform,go,0,0,0.0,0,1,1,0.49897,155
3,uniform,go,0,0,0.0,0,1,1,0.51517,156
3,uniform,go,0,0,0.0,0,1,1,0.51519,157
3,uniform,go,0,0,0.0,0,1,1,0.4985,158
3,uniform,go,0,0,0.0,0,1,1,0.51555,159
3,uniform,go,0,0,0.0,0,1,1,0.51523,160
3,uniform,go,0,0,0.0,0,1,1,0.54886,161
3,uniform,go,0,0,0.0,0,1,1,0.51527,162
3,uniform,go,0,0,0.0,0,1,1,0.48192,163
3,uniform,go,0,0,0.0,0,1,1,0.5156,164
3,uniform,go,0,0,0.0,0,1,1,0.49861,165
3,uniform,stop,1,217,0.4357,0,0,1,0.68224,166
3,uniform,stop,1,266,0.53283,0,0,1,0.6819,167
3,uniform,go,0,0,0.0,0,1,1,0.53191,168
3,uniform,go,0,0,0.0,0,1,1,0.48196,169
3,uniform,stop,1,422,0.84431,0,1,0,0.53235,170
3,uniform,stop,1,405,0.81158,0,1,0,0.54889,171
3,uniform,stop,1,300,0.6,1,0,1,0.66575,172
3,uniform,stop,1,131,0.26221,0,0,1,0.68191,173
3,uniform,stop,1,450,0.9,0,1,0,0.53228,174
3,uniform,go,0,0,0.0,0,1,1,0.54854,175
3,uniform,go,0,0,0.0,0,1,1,0.54852,176
3,uniform,go,0,0,0.0,0,1,1,0.56559,177
3,uniform,go,0,0,0.0,0,1,1,0.53243,178
3,uniform,stop,1,293,0.58704,0,1,0,0.46525,179
3,uniform,go,0,0,0.0,0,1,1,0.51521,180
3,uniform,stop,1,200,0.4,1,0,1,0.68188,181
3,uniform,stop,1,350,0.7,1,1,0,0.53223,182
3,uniform,go,0,0,0.0,0,1,1,0.56526,183
3,uniform,go,0,0,0.0,0,1,1,0.58213,184
3,uniform,go,0,0,0.0,0,1,1,0.51562,185
3,uniform,go,0,0,0.0,0,1,1,0.51538,186
3,uniform,stop,1,400,0.8,1,1,0,0.53208,187
3,uniform,go,0,0,0.0,0,1,1,0.53197,188
3,uniform,go,0,0,0.0,0,1,1,0.58184,189
3,uniform,go,0,0,0.0,0,1,1,0.46518,190
3,uniform,stop,1,450,0.9,0,1,0,0.51558,191
3,uniform,go,0,0,0.0,0,1,1,0.58192,192
3,uniform,stop,1,408,0.81763,0,1,0,0.54876,193
3,uniform,go,0,0,0.0,0,1,1,0.56523,194
3,uniform,stop,1,85,0.17071,0,0,1,0.68195,195
3,uniform,stop,1,129,0.25806,0,0,1,0.6819,196
3,uniform,go,0,0,0.0,0,1,1,0.4986,197
3,uniform,stop,1,189,0.37861,0,0,1,0.68204,198
3,uniform,go,0,0,0.0,0,1,1,0.53188,199
3,uniform,go,0,0,0.0,0,1,1,0.49869,200
3,uniform,stop,1,350,0.7,1,1,0,0.51534,201
3,uniform,stop,1,55,0.11112,0,0,1,0.68191,202
3,uniform,stop,1,219,0.43887,0,0,1,0.68203,203
3,uniform,go,0,0,0.0,0,1,1,0.53201,204
3,uniform,go,0,0,0.0,0,1,1,0.53181,205
3,uniform,go,0,0,0.0,0,1,1,0.53187,206
3,uniform,stop,1,275,0.55016,0,0,1,0.68224,207
3,uniform,go,0,0,0.0,0,1,1,0.48185,208
3,uniform,stop,1,235,0.47092,0,0,1,0.68187,209
3,uniform,stop,1,175,0.35073,0,0,1,0.68186,210
3,uniform,go,0,0,0.0,0,1,1,0.53214,211
3,uniform,go,0,0,0.0,0,1,1,0.51567,212
3,uniform,go,0,0,0.0,0,1,1,0.51563,213
3,uniform,go,0,0,0.0,0,1,1,0.34897,214
3,uniform,stop,1,112,0.22592,0,0,1,0.6823,215
3,uniform,go,0,0,0.0,0,1,1,0.51531,216
3,uniform,go,0,0,0.0,0,1,1,0.68196,217
3,uniform,go,0,0,0.0,0,1,1,0.51518,218
3,uniform,go,0,0,0.0,0,1,1,0.51526,219
3,uniform,go,0,0,0.0,0,1,1,0.51526,220
3,uniform,go,0,0,0.0,0,1,1,0.48223,221
3,uniform,go,0,0,0.0,0,1,1,0.54869,222
3,uniform,go,0,0,0.0,0,1,1,0.49875,223
3,uniform,go,0,0,0.0,0,1,1,0.51538,224
3,uniform,go,0,0,0.0,0,1,1,0.49893,225
3,uniform,go,0,0,0.0,0,1,1,0.51572,226
3,uniform,go,0,0,0.0,0,1,1,0.49935,227
3,uniform,go,0,0,0.0,0,1,1,0.51581,228
3,uniform,go,0,0,0.0,0,1,1,0.49855,229
3,uniform,go,0,0,0.0,0,1,1,0.53234,230
3,uniform,stop,1,291,0.58299,0,1,0,0.49914,231
3,uniform,go,0,0,0.0,0,1,1,0.54904,232
3,uniform,go,0,0,0.0,0,1,1,0.4986,233
3,uniform,stop,1,297,0.59436,0,1,0,0.53232,234
3,uniform,go,0,0,0.0,0,1,1,0.51524,235
3,uniform,go,0,0,0.0,0,1,1,0.58195,236
3,uniform,go,0,0,0.0,0,1,1,0.48182,237
3,uniform,go,0,0,0.0,0,1,1,0.53199,238
3,uniform,stop,1,16,0.033604,0,0,1,0.68238,239
3,uniform,go,0,0,0.0,0,1,1,0.51517,240
3,uniform,go,0,0,0.0,0,1,1,0.49903,241
3,uniform,stop,1,400,0.8,1,1,0,0.51573,242
3,uniform,stop,1,125,0.25181,0,0,1,0.68219,243
3,uniform,stop,1,408,0.81776,0,1,0,0.54866,244
3,uniform,stop,1,365,0.73025,0,1,0,0.53227,245
3,uniform,go,0,0,0.0,0,1,1,0.51556,246
3,uniform,stop,1,400,0.8,1,1,0,0.51543,247
3,uniform,go,0,0,0.0,0,1,1,0.51522,248
3,uniform,stop,1,250,0.5,1,0,1,0.68218,249
3,uniform,go,0,0,0.0,0,1,1,0.5155,250
3,uniform,stop,1,250,0.5,1,0,1,0.68239,251
3,uniform,go,0,0,0.0,0,1,1,0.53242,252
3,uniform,go,0,0,0.0,0,1,1,0.5325,253
3,uniform,go,0,0,0.0,0,1,1,0.49884,254
3,uniform,stop,1,350,0.7,1,1,0,0.532,255
3,uniform,stop,1,130,0.26073,0,0,1,0.68226,256
3,uniform,go,0,0,0.0,0,1,1,0.53241,257
3,uniform,go,0,0,0.0,0,1,1,0.53249,258
3,uniform,stop,1,412,0.82438,0,1,0,0.51568,259
3,uniform,go,0,0,0.0,0,1,1,0.53233,260
3,uniform,go,0,0,0.0,0,1,1,0.49907,261
3,uniform,go,0,0,0.0,0,1,1,0.49876,262
3,uniform,go,0,0,0.0,0,1,1,0.51566,263
3,uniform,go,0,0,0.0,0,1,1,0.56537,264
3,uniform,go,0,0,0.0,0,1,1,0.499,265
3,uniform,go,0,0,0.0,0,1,1,0.49846,266
3,uniform,go,0,0,0.0,0,1,1,0.51566,267
3,uniform,stop,1,80,0.16148,0,0,1,0.68241,268
3,uniform,go,0,0,0.0,0,1,1,0.49901,269
3,uniform,go,0,0,0.0,0,1,1,0.53224,270
3,uniform,go,0,0,0.0,0,1,1,0.51582,271
3,uniform,stop,1,159,0.3196,0,0,1,0.68226,272
3,uniform,stop,1,265,0.53086,0,0,1,0.68235,273
3,uniform,stop,1,192,0.38462,0,0,1,0.68223,274
3,uniform,stop,1,308,0.61709,0,1,0,0.53217,275
3,uniform,go,0,0,0.0,0,1,1,0.51555,276
3,uniform,go,0,0,0.0,0,1,1,0.5158,277
3,uniform,go,0,0,0.0,0,1,1,0.51567,278
3,uniform,go,0,0,0.0,0,1,1,0.53253,279
3,uniform,go,0,0,0.0,0,1,1,0.51568,280
3,uniform,go,0,0,0.0,0,1,1,0.53076,281
3,uniform,go,0,0,0.0,0,1,1,0.48225,282
3,uniform,go,0,0,0.0,0,1,1,0.48226,283
3,uniform,go,0,0,0.0,0,1,1,0.49891,284
3,uniform,stop,1,156,0.31272,0,0,1,0.68215,285
3,uniform,stop,1,11,0.022513,0,0,1,0.68244,286
3,uniform,go,0,0,0.0,0,1,1,0.49899,287
3,uniform,go,0,0,0.0,0,1,1,0.53239,288
3,uniform,stop,1,34,0.068806,0,0,1,0.68232,289
3,uniform,stop,1,450,0.9,0,1,0,0.49909,290
3,uniform,go,0,0,0.0,0,1,1,0.51506,291
3,uniform,go,0,0,0.0,0,1,1,0.51553,292
3,uniform,stop,1,299,0.59852,0,0,1,0.68216,293
3,uniform,go,0,0,0.0,0,1,1,0.53231,294
3,uniform,stop,1,300,0.6,1,1,0,0.49912,295
3,uniform,go,0,0,0.0,0,1,1,0.54914,296
3,uniform,go,0,0,0.0,0,1,1,0.54857,297
3,uniform,stop,1,211,0.42289,0,0,1,0.68228,298
3,uniform,stop,1,327,0.65445,0,1,0,0.51574,299
3,uniform,go,0,0,0.0,0,1,1,0.48243,300
3,uniform,go,0,0,0.0,0,1,1,0.54893,301
3,uniform,stop,1,350,0.7,1,1,0,0.46564,302
3,uniform,stop,1,212,0.42526,0,0,1,0.68224,303
3,uniform,go,0,0,0.0,0,1,1,0.53226,304
3,uniform,go,0,0,0.0,0,1,1,0.51585,305
3,uniform,go,0,0,0.0,0,1,1,0.49896,306
3,uniform,go,0,0,0.0,0,1,1,0.51559,307
3,uniform,stop,1,200,0.4,1,0,1,0.6822,308
3,uniform,go,0,0,0.0,0,1,1,0.53234,309
3,uniform,stop,1,145,0.29044,0,0,1,0.68214,310
3,uniform,go,0,0,0.0,0,1,1,0.46546,311
3,uniform,stop,1,200,0.4,1,0,1,0.68191,312
3,uniform,go,0,0,0.0,0,1,1,0.49879,313
3,uniform,go,0,0,0.0,0,1,1,0.5158,314
3,uniform,go,0,0,0.0,0,1,1,0.49895,315
3,uniform,stop,1,439,0.87965,0,1,0,0.56569,316
3,uniform,go,0,0,0.0,0,1,1,0.54905,317
3,uniform,go,0,0,0.0,0,1,1,0.51575,318
3,uniform,stop,1,113,0.22619,0,0,1,0.68219,319
3,uniform,go,0,0,0.0,0,1,1,0.54902,320
3,uniform,go,0,0,0.0,0,1,1,0.48241,321
3,uniform,go,0,0,0.0,0,1,1,0.49895,322
3,uniform,go,0,0,0.0,0,1,1,0.51598,323
3,uniform,stop,1,300,0.6,1,1,0,0.46544,324
3,uniform,go,0,0,0.0,0,1,1,0.68189,325
3,uniform,go,0,0,0.0,0,1,1,0.48194,326
3,uniform,stop,1,235,0.47092,0,1,0,0.44878,327
3,uniform,go,0,0,0.0,0,1,1,0.49918,328
3,uniform,go,0,0,0.0,0,1,1,0.51558,329
3,uniform,go,0,0,0.0,0,1,1,0.54898,330
3,uniform,go,0,0,0.0,0,1,1,0.4987,331
3,uniform,go,0,0,0.0,0,1,1,0.49896,332
3,uniform,go,0,0,0.0,0,1,1,0.48223,333
3,uniform,go,0,0,0.0,0,1,1,0.51567,334
3,uniform,go,0,0,0.0,0,1,1,0.49888,335
3,uniform,go,0,0,0.0,0,1,1,0.49906,336
3,uniform,go,0,0,0.0,0,1,1,0.5158,337
3,uniform,go,0,0,0.0,0,1,1,0.53249,338
3,uniform,go,0,0,0.0,0,1,1,0.48241,339
3,uniform,go,0,0,0.0,0,1,1,0.49855,340
3,uniform,go,0,0,0.0,0,1,1,0.49893,341
3,uniform,stop,1,443,0.88777,0,1,0,0.51551,342
3,uniform,stop,1,163,0.32757,0,0,1,0.68222,343
3,uniform,stop,1,198,0.39679,0,0,1,0.68261,344
3,uniform,go,0,0,0.0,0,1,1,0.53238,345
3,uniform,go,0,0,0.0,0,1,1,0.51566,346
3,uniform,go,0,0,0.0,0,1,1,0.51525,347
3,uniform,go,0,0,0.0,0,1,1,0.48022,348
3,uniform,stop,1,44,0.089951,0,0,1,0.68235,349
3,uniform,go,0,0,0.0,0,1,1,0.53192,350
3,uniform,go,0,0,0.0,0,1,1,0.51566,351
3,uniform,go,0,0,0.0,0,1,1,0.51571,352
3,uniform,go,0,0,0.0,0,1,1,0.51571,353
3,uniform,stop,1,188,0.3774,0,0,1,0.66583,354
3,uniform,stop,1,250,0.5,1,0,1,0.6821,355
3,uniform,go,0,0,0.0,0,1,1,0.51552,356
3,uniform,go,0,0,0.0,0,1,1,0.53237,357
3,uniform,stop,1,395,0.79041,0,1,0,0.53225,358
3,uniform,go,0,0,0.0,0,1,1,0.49849,359
3,uniform,go,0,0,0.0,0,1,1,0.54937,360
3,uniform,go,0,0,0.0,0,1,1,0.54891,361
3,uniform,go,0,0,0.0,0,1,1,0.49928,362
3,uniform,go,0,0,0.0,0,1,1,0.51533,363
3,uniform,go,0,0,0.0,0,1,1,0.51523,364
3,uniform,stop,1,450,0.9,0,1,0,0.53192,365
3,uniform,stop,1,377,0.75508,0,1,0,0.53224,366
3,uniform,stop,1,108,0.21602,0,0,1,0.68218,367
3,uniform,stop,1,250,0.5,1,1,0,0.49861,368
3,uniform,stop,1,203,0.40695,0,0,1,0.68243,369
3,uniform,go,0,0,0.0,0,1,1,0.54922,370
3,uniform,stop,1,98,0.19705,0,0,1,0.68218,371
3,uniform,stop,1,99,0.19986,0,0,1,0.68224,372
3,uniform,stop,1,219,0.43864,0,0,1,0.68249,373
3,uniform,go,0,0,0.0,0,1,1,0.49895,374
3,uniform,go,0,0,0.0,0,1,1,0.51536,375
3,uniform,go,0,0,0.0,0,1,1,0.51563,376
3,uniform,go,0,0,0.0,0,1,1,0.4986,377
3,uniform,go,0,0,0.0,0,1,1,0.51519,378
3,uniform,go,0,0,0.0,0,1,1,0.56564,379
3,uniform,go,0,0,0.0,0,1,1,0.4986,380
3,uniform,go,0,0,0.0,0,1,1,0.49898,381
3,uniform,stop,1,350,0.7,1,1,0,0.53226,382
3,uniform,go,0,0,0.0,0,1,1,0.61574,383
3,uniform,go,0,0,0.0,0,1,1,0.53236,384
3,uniform,stop,1,394,0.78996,0,1,0,0.34858,385
3,uniform,stop,1,450,0.9,0,1,0,0.46521,386
3,uniform,go,0,0,0.0,0,1,1,0.48181,387
3,uniform,go,0,0,0.0,0,1,1,0.5323,388
3,uniform,go,0,0,0.0,0,1,1,0.49895,389
3,uniform,go,0,0,0.0,0,1,1,0.48245,390
3,uniform,stop,1,400,0.8,1,1,0,0.49891,391
3,uniform,stop,1,404,0.80851,0,1,0,0.51517,392
3,uniform,stop,1,442,0.88428,0,1,0,0.49926,393
3,uniform,stop,1,83,0.16725,0,0,1,0.68179,394
3,uniform,go,0,0,0.0,0,1,1,0.532,395
3,uniform,go,0,0,0.0,0,1,1,0.51525,396
3,uniform,stop,1,300,0.6,1,1,0,0.499,397
3,uniform,stop,1,416,0.8335,0,1,0,0.49893,398
3,uniform,go,0,0,0.0,0,1,1,0.51555,399
3,uniform,stop,1,410,0.82172,0,1,0,0.51534,400
3,uniform,go,0,0,0.0,0,1,1,0.5489,401
3,uniform,go,0,0,0.0,0,1,1,0.58223,402
3,uniform,stop,1,374,0.74871,0,1,0,0.53236,403
3,uniform,go,0,0,0.0,0,1,1,0.53201,404
3,uniform,go,0,0,0.0,0,1,1,0.58228,405
3,uniform,stop,1,350,0.7,1,1,0,0.49861,406
3,uniform,go,0,0,0.0,0,1,1,0.49907,407
3,uniform,stop,1,400,0.8,1,1,0,0.49889,408
3,uniform,stop,1,300,0.6,1,1,0,0.53229,409
3,uniform,stop,1,200,0.4,1,0,1,0.68181,410
3,uniform,go,0,0,0.0,0,1,1,0.46549,411
3,uniform,go,0,0,0.0,0,1,1,0.53217,412
3,uniform,go,0,0,0.0,0,1,1,0.58184,413
3,uniform,stop,1,384,0.76885,0,1,0,0.49877,414
3,uniform,go,0,0,0.0,0,1,1,0.5319,415
3,uniform,go,0,0,0.0,0,1,1,0.58239,416
3,uniform,go,0,0,0.0,0,1,1,0.53176,417
3,uniform,go,0,0,0.0,0,1,1,0.54906,418
3,uniform,go,0,0,0.0,0,1,1,0.46573,419
3,uniform,go,0,0,0.0,0,1,1,0.51553,420
3,uniform,go,0,0,0.0,0,1,1,0.56581,421
3,uniform,go,0,0,0.0,0,1,1,0.51595,422
3,uniform,go,0,0,0.0,0,1,1,0.48219,423
3,uniform,stop,1,200,0.4,1,0,1,0.68202,424
3,uniform,stop,1,294,0.58803,0,1,0,0.53185,425
3,uniform,go,0,0,0.0,0,1,1,0.53211,426
3,uniform,go,0,0,0.0,0,1,1,0.46569,427
3,uniform,go,0,0,0.0,0,1,1,0.48211,428
3,uniform,stop,1,77,0.15475,0,0,1,0.68192,429
3,uniform,go,0,0,0.0,0,1,1,0.48231,430
3,uniform,go,0,0,0.0,0,1,1,0.53232,431
3,uniform,go,0,0,0.0,0,1,1,0.68228,432
3,uniform,go,0,0,0.0,0,1,1,0.48239,433
3,uniform,go,0,0,0.0,0,1,1,0.6823,434
3,uniform,go,0,0,0.0,0,1,1,0.49869,435
3,uniform,stop,1,267,0.53406,0,1,0,0.46559,436
3,uniform,go,0,0,0.0,0,1,1,0.44864,437
3,uniform,go,0,0,0.0,0,1,1,0.53218,438
3,uniform,go,0,0,0.0,0,1,1,0.51584,439
3,uniform,go,0,0,0.0,0,1,1,0.52154,440
3,uniform,go,0,0,0.0,0,1,1,0.51541,441
3,uniform,go,0,0,0.0,0,1,1,0.51526,442
3,uniform,go,0,0,0.0,0,1,1,0.48229,443
3,uniform,go,0,0,0.0,0,1,1,0.51531,444
3,uniform,go,0,0,0.0,0,1,1,0.4986,445
3,uniform,go,0,0,0.0,0,1,1,0.51529,446
3,uniform,go,0,0,0.0,0,1,1,0.51565,447
3,uniform,go,0,0,0.0,0,1,1,0.49868,448
3,uniform,go,0,0,0.0,0,1,1,0.51543,449
3,uniform,go,0,0,0.0,0,1,1,0.53216,450
3,uniform,go,0,0,0.0,0,1,1,0.532,451
3,uniform,go,0,0,0.0,0,1,1,0.48196,452
3,uniform,go,0,0,0.0,0,1,1,0.49879,453
3,uniform,go,0,0,0.0,0,1,1,0.51525,454
3,uniform,stop,1,26,0.053754,0,0,1,0.68243,455
3,uniform,stop,1,23,0.046351,0,0,1,0.68218,456
3,uniform,go,0,0,0.0,0,1,1,0.46526,457
3,uniform,go,0,0,0.0,0,1,1,0.53193,458
3,uniform,stop,1,200,0.4,1,0,1,0.68221,459
3,uniform,stop,1,380,0.76143,0,1,0,0.51524,460
3,uniform,go,0,0,0.0,0,1,1,0.49863,461
3,uniform,stop,1,373,0.74631,0,1,0,0.56532,462
3,uniform,stop,1,400,0.8,1,1,0,0.56567,463
3,uniform,go,0,0,0.0,0,1,1,0.44866,464
3,uniform,go,0,0,0.0,0,1,1,0.5322,465
3,uniform,go,0,0,0.0,0,1,1,0.49915,466
3,uniform,go,0,0,0.0,0,1,1,0.51528,467
3,uniform,go,0,0,0.0,0,1,1,0.53239,468
3,uniform,stop,1,50,0.10167,0,0,1,0.68182,469
3,uniform,go,0,0,0.0,0,1,1,0.51526,470
3,uniform,go,0,0,0.0,0,1,1,0.49857,471
3,uniform,go,0,0,0.0,0,1,1,0.48193,472
3,uniform,go,0,0,0.0,0,1,1,0.48182,473
3,uniform,go,0,0,0.0,0,1,1,0.48182,474
3,uniform,go,0,0,0.0,0,1,1,0.53209,475
3,uniform,go,0,0,0.0,0,1,1,0.48199,476
3,uniform,go,0,0,0.0,0,1,1,0.49874,477
3,uniform,stop,1,6,0.013283,0,0,1,0.68192,478
3,uniform,stop,1,121,0.24249,0,0,1,0.68228,479
3,uniform,go,0,0,0.0,0,1,1,0.49901,480
3,uniform,go,0,0,0.0,0,1,1,0.49866,481
3,uniform,stop,1,400,0.8,1,1,0,0.48193,482
3,uniform,stop,1,31,0.062045,0,0,1,0.68258,483
3,uniform,go,0,0,0.0,0,1,1,0.49882,484
3,uniform,go,0,0,0.0,0,1,1,0.53194,485
3,uniform,go,0,0,0.0,0,1,1,0.48198,486
3,uniform,go,0,0,0.0,0,1,1,0.51577,487
3,uniform,stop,1,200,0.4,1,0,1,0.68233,488
3,uniform,stop,1,300,0.6,1,1,0,0.49906,489
3,uniform,go,0,0,0.0,0,1,1,0.5653,490
3,uniform,go,0,0,0.0,0,1,1,0.51584,491
3,uniform,go,0,0,0.0,0,1,1,0.53186,492
3,uniform,go,0,0,0.0,0,1,1,0.49867,493
3,uniform,go,0,0,0.0,0,1,1,0.53023,494
3,uniform,stop,1,35,0.071453,0,0,1,0.68229,495
3,uniform,stop,1,350,0.7,1,1,0,0.53209,496
3,uniform,go,0,0,0.0,0,1,1,0.51592,497
3,uniform,stop,1,448,0.89719,0,1,0,0.51537,498
3,uniform,go,0,0,0.0,0,1,1,0.54858,499
3,uniform,go,0,0,0.0,0,1,1,0.51514,500
3,uniform,go,0,0,0.0,0,1,1,0.51563,501
3,uniform,go,0,0,0.0,0,1,1,0.58197,502
3,uniform,stop,1,252,0.50543,0,0,1,0.68233,503
3,uniform,go,0,0,0.0,0,1,1,0.51569,504
3,uniform,go,0,0,0.0,0,1,1,0.51576,505
3,uniform,stop,1,266,0.53377,0,0,1,0.68181,506
3,uniform,stop,1,350,0.7,1,0,1,0.68187,507
3,uniform,go,0,0,0.0,0,1,1,0.56557,508
3,uniform,stop,1,228,0.45606,0,0,1,0.68192,509
3,uniform,go,0,0,0.0,0,1,1,0.51526,510
3,uniform,stop,1,149,0.29824,0,0,1,0.68196,511
3,uniform,go,0,0,0.0,0,1,1,0.54873,512
3,uniform,stop,1,98,0.19666,0,0,1,0.68208,513
3,uniform,go,0,0,0.0,0,1,1,0.53231,514
3,uniform,go,0,0,0.0,0,1,1,0.54902,515
3,uniform,stop,1,106,0.2126,0,0,1,0.68197,516
3,uniform,stop,1,388,0.77724,0,1,0,0.53199,517
3,uniform,go,0,0,0.0,0,1,1,0.53191,518
3,uniform,go,0,0,0.0,0,1,1,0.51585,519
3,uniform,go,0,0,0.0,0,1,1,0.49858,520
3,uniform,go,0,0,0.0,0,1,1,0.51523,521
3,uniform,stop,1,153,0.30737,0,0,1,0.68179,522
3,uniform,stop,1,250,0.5,1,0,1,0.68195,523
3,uniform,go,0,0,0.0,0,1,1,0.53194,524
3,uniform,go,0,0,0.0,0,1,1,0.53195,525
3,uniform,go,0,0,0.0,0,1,1,0.48209,526
3,uniform,stop,1,67,0.13412,0,0,1,0.68198,527
3,uniform,go,0,0,0.0,0,1,1,0.48218,528
3,uniform,stop,1,250,0.5,1,0,1,0.68194,529
3,uniform,go,0,0,0.0,0,1,1,0.49892,530
3,uniform,go,0,0,0.0,0,1,1,0.51557,531
3,uniform,go,0,0,0.0,0,1,1,0.54895,532
3,uniform,go,0,0,0.0,0,1,1,0.51568,533
3,uniform,stop,1,412,0.82581,0,1,0,0.5319,534
3,uniform,go,0,0,0.0,0,1,1,0.49901,535
3,uniform,go,0,0,0.0,0,1,1,0.49911,536
3,uniform,stop,1,220,0.44172,0,0,1,0.68173,537
3,uniform,go,0,0,0.0,0,1,1,0.49865,538
3,uniform,stop,1,450,0.9,0,1,0,0.53189,539
3,uniform,stop,1,300,0.6,1,1,0,0.49903,540
3,uniform,stop,1,447,0.89494,0,1,0,0.4823,541
3,uniform,go,0,0,0.0,0,1,1,0.51525,542
3,uniform,go,0,0,0.0,0,1,1,0.48184,543
3,uniform,go,0,0,0.0,0,1,1,0.51527,544
3,uniform,go,0,0,0.0,0,1,1,0.49911,545
3,uniform,stop,1,5,0.010337,0,0,1,0.68218,546
3,uniform,stop,1,450,0.9,0,1,0,0.49893,547
3,uniform,go,0,0,0.0,0,1,1,0.482,548
3,uniform,go,0,0,0.0,0,1,1,0.56521,549
3,uniform,go,0,0,0.0,0,1,1,0.66599,550
3,uniform,go,0,0,0.0,0,1,1,0.48157,551
3,uniform,go,0,0,0.0,0,1,1,0.52254,552
3,uniform,go,0,0,0.0,0,1,1,0.51554,553
3,uniform,go,0,0,0.0,0,1,1,0.49904,554
3,uniform,go,0,0,0.0,0,1,1,0.49865,555
3,uniform,go,0,0,0.0,0,1,1,0.49904,556
3,uniform,go,0,0,0.0,0,1,1,0.53212,557
3,uniform,go,0,0,0.0,0,1,1,0.48194,558
3,uniform,go,0,0,0.0,0,1,1,0.49838,559
3,uniform,go,0,0,0.0,0,1,1,0.53243,560
3,uniform,stop,1,332,0.66599,0,1,0,0.48188,561
3,uniform,stop,1,212,0.42433,0,0,1,0.68231,562
3,uniform,go,0,0,0.0,0,1,1,0.51563,563
3,uniform,go,0,0,0.0,0,1,1,0.49858,564
3,uniform,stop,1,231,0.46326,0,0,1,0.68171,565
3,uniform,stop,1,265,0.53063,0,0,1,0.68248,566
3,uniform,go,0,0,0.0,0,1,1,0.51558,567
3,uniform,go,0,0,0.0,0,1,1,0.53216,568
3,uniform,go,0,0,0.0,0,1,1,0.49855,569
3,uniform,stop,1,371,0.74369,0,1,0,0.53218,570
3,uniform,go,0,0,0.0,0,1,1,0.68255,571
3,uniform,go,0,0,0.0,0,1,1,0.51565,572
3,uniform,stop,1,300,0.6,1,0,1,0.68258,573
3,uniform,stop,1,450,0.9,0,1,0,0.51587,574
3,uniform,stop,1,400,0.8,1,1,0,0.49895,575
3,uniform,go,0,0,0.0,0,1,1,0.53254,576
3,uniform,stop,1,62,0.12487,0,0,1,0.68229,577
3,uniform,go,0,0,0.0,0,1,1,0.49883,578
3,uniform,go,0,0,0.0,0,1,1,0.53226,579
3,uniform,stop,1,379,0.75933,0,1,0,0.51565,580
3,uniform,stop,1,226,0.45259,0,0,1,0.68206,581
3,uniform,go,0,0,0.0,0,1,1,0.56571,582
3,uniform,go,0,0,0.0,0,1,1,0.51563,583
3,uniform,go,0,0,0.0,0,1,1,0.58225,584
3,uniform,stop,1,120,0.24048,0,0,1,0.68235,585
3,uniform,go,0,0,0.0,0,1,1,0.63196,586
3,uniform,go,0,0,0.0,0,1,1,0.46567,587
3,uniform,go,0,0,0.0,0,1,1,0.48246,588
3,uniform,go,0,0,0.0,0,1,1,0.51563,589
3,uniform,stop,1,200,0.4,1,0,1,0.68227,590
3,uniform,go,0,0,0.0,0,1,1,0.53228,591
3,uniform,go,0,0,0.0,0,1,1,0.53243,592
3,uniform,stop,1,167,0.33531,0,0,1,0.68179,593
3,uniform,stop,1,145,0.29019,0,0,1,0.68244,594
3,uniform,stop,1,370,0.74065,0,1,0,0.48207,595
3,uniform,go,0,0,0.0,0,1,1,0.61573,596
3,uniform,stop,1,87,0.17501,0,0,1,0.68245,597
3,uniform,stop,1,279,0.55832,0,1,0,0.51584,598
3,uniform,go,0,0,0.0,0,1,1,0.53235,599
3,uniform,go,0,0,0.0,0,1,1,0.53217,600
3,uniform,go,0,0,0.0,0,1,1,0.53236,601
3,uniform,stop,1,214,0.42936,0,0,1,0.66588,602
3,uniform,stop,1,147,0.29415,0,0,1,0.66584,603
3,uniform,go,0,0,0.0,0,1,1,0.51575,604
3,uniform,go,0,0,0.0,0,1,1,0.499,605
3,uniform,go,0,0,0.0,0,1,1,0.4991,606
3,uniform,go,0,0,0.0,0,1,1,0.51573,607
3,uniform,go,0,0,0.0,0,1,1,0.48254,608
3,uniform,go,0,0,0.0,0,1,1,0.49898,609
3,uniform,go,0,0,0.0,0,1,1,0.51554,610
3,uniform,go,0,0,0.0,0,1,1,0.51554,611
3,uniform,stop,1,350,0.7,1,1,0,0.51567,612
3,uniform,go,0,0,0.0,0,1,1,0.53244,613
3,uniform,go,0,0,0.0,0,1,1,0.49923,614
3,uniform,go,0,0,0.0,0,1,1,0.49898,615
3,uniform,go,0,0,0.0,0,1,1,0.51529,616
3,uniform,stop,1,179,0.35961,0,0,1,0.68227,617
3,uniform,go,0,0,0.0,0,1,1,0.51566,618
3,uniform,go,0,0,0.0,0,1,1,0.51582,619
3,uniform,go,0,0,0.0,0,1,1,0.53237,620
3,uniform,stop,1,81,0.16357,0,0,1,0.68252,621
3,uniform,stop,1,350,0.7,1,1,0,0.46754,622
3,uniform,stop,1,52,0.10592,0,0,1,0.68219,623
3,uniform,stop,1,250,0.5,1,0,1,0.68232,624
3,uniform,stop,1,411,0.82357,0,1,0,0.53202,625
3,uniform,go,0,0,0.0,0,1,1,0.51557,626
3,uniform,go,0,0,0.0,0,1,1,0.53222,627
3,uniform,go,0,0,0.0,0,1,1,0.49898,628
3,uniform,go,0,0,0.0,0,1,1,0.49914,629
3,uniform,go,0,0,0.0,0,1,1,0.58229,630
3,uniform,stop,1,300,0.6,1,1,0,0.48227,631
3,uniform,stop,1,12,0.024434,0,0,1,0.68225,632
3,uniform,stop,1,250,0.5,1,0,1,0.6824,633
3,uniform,go,0,0,0.0,0,1,1,0.49896,634
3,uniform,go,0,0,0.0,0,1,1,0.51554,635
3,uniform,go,0,0,0.0,0,1,1,0.51583,636
3,uniform,go,0,0,0.0,0,1,1,0.48238,637
3,uniform,go,0,0,0.0,0,1,1,0.54913,638
3,uniform,go,0,0,0.0,0,1,1,0.51571,639
3,uniform,go,0,0,0.0,0,1,1,0.48239,640
3,uniform,go,0,0,0.0,0,1,1,0.53192,641
3,uniform,stop,1,400,0.8,1,1,0,0.4991,642
3,uniform,stop,1,416,0.83242,0,1,0,0.49929,643
3,uniform,go,0,0,0.0,0,1,1,0.51581,644
3,uniform,go,0,0,0.0,0,1,1,0.4991,645
3,uniform,go,0,0,0.0,0,1,1,0.51574,646
3,uniform,go,0,0,0.0,0,1,1,0.4991,647
3,uniform,stop,1,200,0.4,1,0,1,0.68192,648
3,uniform,go,0,0,0.0,0,1,1,0.51589,649
3,uniform,go,0,0,0.0,0,1,1,0.53225,650
3,uniform,go,0,0,0.0,0,1,1,0.49901,651
3,uniform,stop,1,228,0.45789,0,0,1,0.682,652
3,uniform,go,0,0,0.0,0,1,1,0.51558,653
3,uniform,go,0,0,0.0,0,1,1,0.51575,654
3,uniform,go,0,0,0.0,0,1,1,0.5156,655
3,uniform,go,0,0,0.0,0,1,1,0.499,656
3,uniform,go,0,0,0.0,0,1,1,0.58235,657
3,uniform,go,0,0,0.0,0,1,1,0.46557,658
3,uniform,stop,1,149,0.29923,0,0,1,0.68191,659
3,uniform,go,0,0,0.0,0,1,1,0.48246,660
3,uniform,go,0,0,0.0,0,1,1,0.49856,661
3,uniform,go,0,0,0.0,0,1,1,0.53229,662
3,uniform,go,0,0,0.0,0,1,1,0.51568,663
3,uniform,go,0,0,0.0,0,1,1,0.51566,664
3,uniform,go,0,0,0.0,0,1,1,0.51536,665
3,uniform,go,0,0,0.0,0,1,1,0.53221,666
3,uniform,go,0,0,0.0,0,1,1,0.48182,667
3,uniform,go,0,0,0.0,0,1,1,0.51513,668
3,uniform,go,0,0,0.0,0,1,1,0.5159,669
3,uniform,go,0,0,0.0,0,1,1,0.53212,670
3,uniform,go,0,0,0.0,0,1,1,0.4991,671
3,uniform,stop,1,300,0.6,1,1,0,0.51522,672
3,uniform,stop,1,350,0.7,1,1,0,0.49859,673
3,uniform,go,0,0,0.0,0,1,1,0.5322,674
3,uniform,go,0,0,0.0,0,1,1,0.49857,675
3,uniform,stop,1,21,0.04266,0,0,1,0.68245,676
3,uniform,go,0,0,0.0,0,1,1,0.49859,677
3,uniform,go,0,0,0.0,0,1,1,0.53204,678
3,uniform,go,0,0,0.0,0,1,1,0.53259,679
3,uniform,go,0,0,0.0,0,1,1,0.49834,680
3,uniform,go,0,0,0.0,0,1,1,0.51574,681
3,uniform,go,0,0,0.0,0,1,1,0.48248,682
3,uniform,go,0,0,0.0,0,1,1,0.51566,683
3,uniform,stop,1,311,0.62372,0,1,0,0.54856,684
3,uniform,stop,1,88,0.17712,0,0,1,0.68201,685
3,uniform,go,0,0,0.0,0,1,1,0.51529,686
3,uniform,go,0,0,0.0,0,1,1,0.53193,687
3,uniform,stop,1,278,0.5573,0,1,0,0.49907,688
3,uniform,go,0,0,0.0,0,1,1,0.49874,689
3,uniform,stop,1,346,0.69379,0,1,0,0.51507,690
3,uniform,go,0,0,0.0,0,1,1,0.51586,691
3,uniform,stop,1,364,0.72951,0,1,0,0.53074,692
3,uniform,go,0,0,0.0,0,1,1,0.53241,693
3,uniform,go,0,0,0.0,0,1,1,0.53256,694
3,uniform,go,0,0,0.0,0,1,1,0.58187,695
3,uniform,stop,1,391,0.78287,0,0,1,0.68212,696
3,uniform,stop,1,200,0.4,1,0,1,0.68232,697
3,uniform,go,0,0,0.0,0,1,1,0.51584,698
3,uniform,go,0,0,0.0,0,1,1,0.51563,699
3,uniform,go,0,0,0.0,0,1,1,0.51509,700
3,uniform,go,0,0,0.0,0,1,1,0.54896,701
3,uniform,go,0,0,0.0,0,1,1,0.51555,702
3,uniform,go,0,0,0.0,0,1,1,0.49878,703
3,uniform,go,0,0,0.0,0,1,1,0.48213,704
3,uniform,go,0,0,0.0,0,1,1,0.51528,705
3,uniform,stop,1,189,0.37819,0,0,1,0.68244,706
3,uniform,stop,1,244,0.48976,0,1,0,0.4657,707
3,uniform,stop,1,400,0.8,1,1,0,0.49872,708
3,uniform,go,0,0,0.0,0,1,1,0.53192,709
3,uniform,go,0,0,0.0,0,1,1,0.49894,710
3,uniform,stop,1,383,0.76692,0,1,0,0.5157,711
3,uniform,go,0,0,0.0,0,1,1,0.53194,712
3,uniform,go,0,0,0.0,0,1,1,0.56545,713
3,uniform,go,0,0,0.0,0,1,1,0.53237,714
3,uniform,stop,1,96,0.19325,0,0,1,0.68241,715
3,uniform,stop,1,352,0.70434,0,1,0,0.53196,716
3,uniform,go,0,0,0.0,0,1,1,0.51572,717
3,uniform,go,0,0,0.0,0,1,1,0.51555,718
3,uniform,stop,1,91,0.18223,0,0,1,0.68195,719
3,uniform,stop,1,53,0.10789,0,0,1,0.68215,720
3,uniform,go,0,0,0.0,0,1,1,0.53182,721
3,uniform,go,0,0,0.0,0,1,1,0.53238,722
3,uniform,go,0,0,0.0,0,1,1,0.49872,723
3,uniform,go,0,0,0.0,0,1,1,0.5153,724
3,uniform,go,0,0,0.0,0,1,1,0.51587,725
3,uniform,go,0,0,0.0,0,1,1,0.49858,726
3,uniform,stop,1,250,0.5,1,1,0,0.49866,727
3,uniform,stop,1,400,0.8,1,1,0,0.54857,728
