idx,GoTrial,StopSignal,Cond,trial_type,choice,response,acc,rt,ssd
40,1,1000,bsl,go,go,1,1.0,0.3849256,1000
40,1,1000,bsl,go,go,1,1.0,0.5313583000000001,1000
40,1,1000,bsl,go,go,1,1.0,0.3717849,1000
40,1,1000,bsl,go,go,1,1.0,0.4785902,1000
40,1,1000,bsl,go,go,1,1.0,0.5451473000000001,1000
40,1,1000,bsl,go,go,1,1.0,0.5184034000000001,1000
40,1,1000,bsl,go,go,1,1.0,0.4916231,1000
40,1,1000,bsl,go,go,1,1.0,0.5450918,1000
40,1,1000,bsl,go,go,1,1.0,0.4916958,1000
40,1,1000,bsl,go,go,1,1.0,0.5316618999999999,1000
40,1,1000,bsl,go,go,1,1.0,0.597314,1000
40,1,1000,bsl,go,go,1,1.0,0.5049342000000001,1000
40,0,300,bsl,stop,go,1,0.0,0.4517285,300
40,0,300,bsl,stop,stop,0,1.0,0.6514515000000001,300
40,0,400,bsl,stop,go,1,0.0,0.5584587000000001,400
40,1,1000,bsl,go,go,1,1.0,0.5715608,1000
40,0,200,bsl,stop,stop,0,1.0,0.6512133000000001,200
40,0,350,bsl,stop,go,1,0.0,0.5582018000000001,350
40,1,1000,bsl,go,go,1,1.0,0.5707995,1000
40,1,1000,bsl,go,go,1,1.0,0.5585063,1000
40,1,1000,bsl,go,go,1,1.0,0.5584074000000001,1000
40,0,250,bsl,stop,stop,0,1.0,0.651543,250
40,1,1000,bsl,go,go,1,1.0,0.5450384,1000
40,1,1000,bsl,go,go,1,1.0,0.4651548,1000
40,0,250,bsl,stop,stop,0,1.0,0.6516002,250
40,1,1000,bsl,go,go,1,1.0,0.5983818000000001,1000
40,1,1000,bsl,go,go,1,1.0,0.5048962,1000
40,1,1000,bsl,go,go,1,1.0,0.6251078999999999,1000
40,0,350,bsl,stop,go,1,0.0,0.5452618,350
40,0,400,bsl,stop,go,1,0.0,0.5850529999999999,400
40,1,1000,bsl,go,go,1,1.0,0.6514643999999999,1000
40,0,200,bsl,stop,stop,0,1.0,0.6515550999999999,200
40,1,1000,bsl,go,go,1,1.0,0.6115408999999999,1000
40,0,200,bsl,stop,stop,0,1.0,0.6516871999999999,200
40,1,1000,bsl,go,go,1,1.0,0.5182583,1000
40,0,400,bsl,stop,go,1,0.0,0.5315784,400
40,1,1000,bsl,go,go,1,1.0,0.5983998,1000
40,0,250,bsl,stop,stop,0,1.0,0.6506911999999999,250
40,1,1000,bsl,go,go,1,1.0,0.5983987,1000
40,0,300,bsl,stop,stop,0,1.0,0.6516999,300
40,0,250,bsl,stop,stop,0,1.0,0.6516069999999999,250
40,1,1000,bsl,go,go,1,1.0,0.5317843000000001,1000
40,1,1000,bsl,go,go,1,1.0,0.5851249000000001,1000
40,1,1000,bsl,go,go,1,1.0,0.5717589000000001,1000
40,1,1000,bsl,go,go,1,1.0,0.5583612000000001,1000
40,1,1000,bsl,go,go,1,1.0,0.5584145,1000
40,0,350,bsl,stop,go,1,0.0,0.5717257,350
40,0,300,bsl,stop,stop,0,1.0,0.6514989000000001,300
40,1,1000,bsl,go,go,1,1.0,0.6117368000000001,1000
40,0,200,bsl,stop,stop,0,1.0,0.6515525,200
40,0,350,bsl,stop,go,1,0.0,0.5450696,350
40,0,400,bsl,stop,go,1,0.0,0.5448573,400
40,1,1000,bsl,go,go,1,1.0,0.6002504000000001,1000
40,1,1000,bsl,go,go,1,1.0,0.5850499,1000
40,1,1000,bsl,go,go,1,1.0,0.5850091,1000
40,1,1000,bsl,go,go,1,1.0,0.5980376000000001,1000
40,1,1000,bsl,go,go,1,1.0,0.5850991999999999,1000
40,0,200,bsl,stop,stop,0,1.0,0.6535476,200
40,0,400,bsl,stop,go,1,0.0,0.5985187,400
40,1,1000,bsl,go,go,1,1.0,0.5983854000000001,1000
40,0,300,bsl,stop,stop,0,1.0,0.6516557000000001,300
40,0,300,bsl,stop,stop,0,1.0,0.6515820999999999,300
40,0,200,bsl,stop,stop,0,1.0,0.6517008000000001,200
40,1,1000,bsl,go,go,1,1.0,0.5470132,1000
40,0,350,bsl,stop,stop,0,1.0,0.6526171000000001,350
40,1,1000,bsl,go,go,1,1.0,0.5868245,1000
40,1,1000,bsl,go,go,1,1.0,0.6134208000000001,1000
40,0,400,bsl,stop,go,1,0.0,0.5584256999999999,400
40,0,250,bsl,stop,stop,0,1.0,0.6515495,250
40,0,350,bsl,stop,stop,0,1.0,0.6516425,350
40,0,250,bsl,stop,stop,0,1.0,0.6516319,250
40,1,1000,bsl,go,go,1,1.0,0.5717837,1000
40,1,1000,bsl,go,go,1,1.0,0.6250004,1000
40,1,1000,bsl,go,go,1,1.0,0.5716846000000001,1000
40,1,1000,bsl,go,stop,0,0.0,0.6515959,1000
40,1,1000,bsl,go,go,1,1.0,0.4251635,1000
40,0,300,bsl,stop,stop,0,1.0,0.6517075999999999,300
40,0,250,bsl,stop,stop,0,1.0,0.6515055999999999,250
40,1,1000,bsl,go,go,1,1.0,0.5719734000000001,1000
40,1,1000,bsl,go,go,1,1.0,0.5983156999999999,1000
40,0,250,bsl,stop,stop,0,1.0,0.651564,250
40,1,1000,bsl,go,go,1,1.0,0.5051405,1000
40,1,1000,bsl,go,go,1,1.0,0.5583941,1000
40,0,200,bsl,stop,stop,0,1.0,0.6515386999999999,200
40,0,350,bsl,stop,go,1,0.0,0.5449172,350
40,0,400,bsl,stop,go,1,0.0,0.5983585,400
40,0,200,bsl,stop,stop,0,1.0,0.6516488,200
40,1,1000,bsl,go,go,1,1.0,0.5715425999999999,1000
40,0,350,bsl,stop,stop,0,1.0,0.6517029999999999,350
40,1,1000,bsl,go,go,1,1.0,0.6116552000000001,1000
40,1,1000,bsl,go,go,1,1.0,0.5850982,1000
40,0,400,bsl,stop,go,1,0.0,0.5184850000000001,400
40,0,300,bsl,stop,stop,0,1.0,0.6517668000000001,300
40,1,1000,bsl,go,go,1,1.0,0.5717372000000001,1000
40,1,1000,bsl,go,go,1,1.0,0.5585233000000001,1000
40,1,1000,bsl,go,go,1,1.0,0.5450210999999999,1000
40,1,1000,bsl,go,go,1,1.0,0.6249566,1000
40,0,300,bsl,stop,go,1,0.0,0.4518955000000001,300
40,1,1000,bsl,go,go,1,1.0,0.5982500000000001,1000
40,0,250,bsl,stop,stop,0,1.0,0.6630878000000001,250
40,1,1000,bsl,go,go,1,1.0,0.5451172000000001,1000
40,0,350,bsl,stop,go,1,0.0,0.5315114000000001,350
40,1,1000,bsl,go,go,1,1.0,0.5599837,1000
40,0,350,bsl,stop,go,1,0.0,0.558455,350
40,0,200,bsl,stop,stop,0,1.0,0.6516512,200
40,0,250,bsl,stop,stop,0,1.0,0.6516406,250
40,0,400,bsl,stop,go,1,0.0,0.5468849,400
40,1,1000,bsl,go,go,1,1.0,0.5984202000000001,1000
40,1,1000,bsl,go,go,1,1.0,0.5717154000000001,1000
40,1,1000,bsl,go,go,1,1.0,0.5582949,1000
40,1,1000,bsl,go,go,1,1.0,0.5851641,1000
40,0,200,bsl,stop,stop,0,1.0,0.6515254,200
40,0,300,bsl,stop,stop,0,1.0,0.651636,300
40,1,1000,bsl,go,go,1,1.0,0.5317156,1000
40,0,400,bsl,stop,go,1,0.0,0.5984430000000001,400
40,1,1000,bsl,go,go,1,1.0,0.5850495,1000
40,1,1000,bsl,go,go,1,1.0,0.6383300999999999,1000
40,0,350,bsl,stop,go,1,0.0,0.5318501999999999,350
40,1,1000,bsl,go,go,1,1.0,0.5984008000000001,1000
40,0,250,bsl,stop,stop,0,1.0,0.6517594,250
40,1,1000,bsl,go,go,1,1.0,0.5983816000000001,1000
40,1,1000,bsl,go,go,1,1.0,0.5185125,1000
40,0,350,bsl,stop,go,1,0.0,0.5587131999999999,350
40,1,1000,bsl,go,go,1,1.0,0.5712754999999999,1000
40,0,400,bsl,stop,go,1,0.0,0.5321563,400
40,1,1000,bsl,go,go,1,1.0,0.6384525,1000
40,0,250,bsl,stop,stop,0,1.0,0.6514864,250
40,0,200,bsl,stop,stop,0,1.0,0.6515144,200
40,1,1000,bsl,go,go,1,1.0,0.5848490000000001,1000
40,1,1000,bsl,go,go,1,1.0,0.5183936,1000
40,0,400,bsl,stop,go,1,0.0,0.5451269999999999,400
40,0,200,bsl,stop,stop,0,1.0,0.6517034,200
40,1,1000,bsl,go,go,1,1.0,0.571759,1000
40,1,1000,bsl,go,go,1,1.0,0.5851235,1000
40,1,1000,bsl,go,go,1,1.0,0.491807,1000
40,0,300,bsl,stop,stop,0,1.0,0.6533758000000001,300
40,0,300,bsl,stop,stop,0,1.0,0.6527933000000001,300
40,1,1000,bsl,go,go,1,1.0,0.5718345,1000
40,0,300,bsl,stop,stop,0,1.0,0.6527015,300
40,1,1000,bsl,go,go,1,1.0,0.5583149000000001,1000
40,1,1000,bsl,go,go,1,1.0,0.5601,1000
40,0,200,bsl,stop,stop,0,1.0,0.6534938,200
40,1,1000,bsl,go,go,1,1.0,0.5849791999999999,1000
40,1,1000,bsl,go,go,1,1.0,0.5051424,1000
40,0,200,bsl,stop,stop,0,1.0,0.6516506000000001,200
40,1,1000,bsl,go,go,1,1.0,0.5601729999999999,1000
40,0,350,bsl,stop,go,1,0.0,0.6252084,350
40,1,1000,bsl,go,go,1,1.0,0.6116512000000001,1000
40,1,1000,bsl,go,go,1,1.0,0.5451142999999999,1000
40,0,250,bsl,stop,stop,0,1.0,0.6515861,250
40,1,1000,bsl,go,go,1,1.0,0.5317155,1000
40,1,1000,bsl,go,go,1,1.0,0.5983725000000001,1000
40,0,400,bsl,stop,go,1,0.0,0.5450893,400
40,0,300,bsl,stop,stop,0,1.0,0.6516833000000001,300
40,0,250,bsl,stop,stop,0,1.0,0.6517018000000001,250
40,1,1000,bsl,go,go,1,1.0,0.5984794000000001,1000
40,0,350,bsl,stop,stop,0,1.0,0.6517573,350
40,0,400,bsl,stop,go,1,0.0,0.5870134,400
40,1,1000,bsl,go,go,1,1.0,0.5583329,1000
40,0,400,bsl,stop,go,1,0.0,0.5582543000000001,400
40,1,1000,bsl,go,go,1,1.0,0.5717612000000001,1000
40,0,200,bsl,stop,stop,0,1.0,0.6516944,200
40,1,1000,bsl,go,go,1,1.0,0.5850207000000001,1000
40,0,200,bsl,stop,stop,0,1.0,0.6515843000000001,200
40,1,1000,bsl,go,go,1,1.0,0.5584306,1000
40,1,1000,bsl,go,go,1,1.0,0.5715745,1000
40,0,250,bsl,stop,stop,0,1.0,0.651416,250
40,0,350,bsl,stop,go,1,0.0,0.5183869000000001,350
40,0,300,bsl,stop,stop,0,1.0,0.6535423,300
40,0,300,bsl,stop,stop,0,1.0,0.6518646,300
40,0,400,bsl,stop,go,1,0.0,0.5717514,400
40,1,1000,bsl,go,go,1,1.0,0.6252886999999999,1000
40,1,1000,bsl,go,go,1,1.0,0.625073,1000
40,1,1000,bsl,go,go,1,1.0,0.5450231,1000
40,1,1000,bsl,go,go,1,1.0,0.5183055999999999,1000
40,0,250,bsl,stop,stop,0,1.0,0.6516982,250
40,0,350,bsl,stop,stop,0,1.0,0.6517491,350
40,1,1000,bsl,go,go,1,1.0,0.5718110000000001,1000
40,1,1000,bsl,go,go,1,1.0,0.5318423000000001,1000
40,1,1000,bsl,go,go,1,1.0,0.5468674,1000
40,0,200,bsl,stop,stop,0,1.0,0.6516851,200
40,1,1000,bsl,go,go,1,1.0,0.5449776999999999,1000
40,0,400,bsl,stop,go,1,0.0,0.5317791999999999,400
40,0,300,bsl,stop,stop,0,1.0,0.6518109999999999,300
40,1,1000,bsl,go,go,1,1.0,0.5850107000000001,1000
40,1,1000,bsl,go,go,1,1.0,0.5984444,1000
40,0,400,bsl,stop,stop,0,1.0,0.6516566999999999,400
40,1,1000,bsl,go,go,1,1.0,0.5850736000000001,1000
40,0,200,bsl,stop,stop,0,1.0,0.6517478999999999,200
40,0,350,bsl,stop,go,1,0.0,0.600229,350
40,1,1000,bsl,go,go,1,1.0,0.6250695,1000
40,1,1000,bsl,go,go,1,1.0,0.5717920999999999,1000
40,0,250,bsl,stop,stop,0,1.0,0.6514924999999999,250
40,1,1000,bsl,go,go,1,1.0,0.5851215999999999,1000
40,1,1000,bsl,go,go,1,1.0,0.5716637,1000
40,0,350,bsl,stop,stop,0,1.0,0.6517664000000001,350
40,0,300,bsl,stop,stop,0,1.0,0.6516685999999999,300
40,1,1000,bsl,go,go,1,1.0,0.6001814999999999,1000
40,1,1000,bsl,go,go,1,1.0,0.5984559,1000
40,0,250,bsl,stop,stop,0,1.0,0.6516586999999999,250
40,1,1000,bsl,go,go,1,1.0,0.5984871999999999,1000
40,1,1000,bsl,go,go,1,1.0,0.5718165000000001,1000
40,1,1000,bsl,go,go,1,1.0,0.5718447999999999,1000
40,0,250,bsl,stop,stop,0,1.0,0.6517618000000001,250
40,1,1000,bsl,go,go,1,1.0,0.5601666000000001,1000
40,1,1000,bsl,go,go,1,1.0,0.6249893,1000
40,0,400,bsl,stop,go,1,0.0,0.545081,400
40,0,300,bsl,stop,stop,0,1.0,0.6516712,300
40,1,1000,bsl,go,go,1,1.0,0.5450999000000001,1000
40,0,300,bsl,stop,stop,0,1.0,0.6535939000000001,300
40,0,350,bsl,stop,stop,0,1.0,0.6517541,350
40,0,400,bsl,stop,go,1,0.0,0.6250496000000001,400
40,1,1000,bsl,go,go,1,1.0,0.6128054000000001,1000
40,0,200,bsl,stop,stop,0,1.0,0.6517041,200
40,1,1000,bsl,go,go,1,1.0,0.5328383000000001,1000
40,0,250,bsl,stop,stop,0,1.0,0.6516668999999999,250
40,0,200,bsl,stop,stop,0,1.0,0.6516390999999999,200
40,0,350,bsl,stop,stop,0,1.0,0.6516731,350
40,1,1000,bsl,go,go,1,1.0,0.5863351,1000
40,1,1000,bsl,go,go,1,1.0,0.5851022,1000
40,1,1000,bsl,go,go,1,1.0,0.5451344,1000
